Folder: Analysis/XRD:XRR/STO/22049_STOL

File: 22049_STOL_XRD.csv
#twotheta, yobs, ycal, bkg, diff
37.0,31.9778,1.0,1.0,1.0
37.05,34.5167,1.0,1.0,1.0
37.1,37.9889,1.0,1.0,1.0
37.15,33.0,1.0,1.0,1.0
37.2,32.0,1.0,1.0,1.0
37.25,29.0,1.0,1.0,1.0
37.3,19.5056,1.0,1.0,1.0
37.35,21.0,1.0,1.0,1.0
37.4,31.4944,1.0,1.0,1.0
37.45,26.4944,1.0,1.0,1.0
37.5,34.0,1.0,1.0,1.0
37.55,28.5056,1.0,1.0,1.0
37.6,25.5056,1.0,1.0,1.0
37.65,24.4944,1.0,1.0,1.0
37.7,37.4944,1.0,1.0,1.0
37.75,36.0,1.0,1.0,1.0
37.8,25.9889,1.0,1.0,1.0
37.85,27.0,1.0,1.0,1.0
37.9,20.0,1.0,1.0,1.0
37.95,35.0111,1.0,1.0,1.0
38.0,43.0,1.0,1.0,1.0
38.05,24.0,1.0,1.0,1.0
38.1,37.4944,1.0,1.0,1.0
38.15,40.5056,1.0,1.0,1.0
38.2,15.0,1.0,1.0,1.0
38.25,23.0,1.0,1.0,1.0
38.3,21.0,1.0,1.0,1.0
38.35,24.4944,1.0,1.0,1.0
38.4,22.0,1.0,1.0,1.0
38.45,31.0,1.0,1.0,1.0
38.5,18.4944,1.0,1.0,1.0
38.55,28.5056,1.0,1.0,1.0
38.6,28.4944,1.0,1.0,1.0
38.65,32.5056,1.0,1.0,1.0
38.7,41.4944,1.0,1.0,1.0
38.75,21.0,1.0,1.0,1.0
38.8,33.0,1.0,1.0,1.0
38.85,28.9889,1.0,1.0,1.0
38.9,25.9889,1.0,1.0,1.0
38.95,35.4833,1.0,1.0,1.0
39.0,21.0,1.0,1.0,1.0
39.05,19.4944,1.0,1.0,1.0
39.1,20.4944,1.0,1.0,1.0
39.15,30.0111,1.0,1.0,1.0
39.2,27.0,1.0,1.0,1.0
39.25,37.0111,1.0,1.0,1.0
39.3,26.0111,1.0,1.0,1.0
39.35,19.0,1.0,1.0,1.0
39.4,24.0,1.0,1.0,1.0
39.45,32.0,1.0,1.0,1.0
39.5,33.0,1.0,1.0,1.0
39.55,26.0111,1.0,1.0,1.0
39.6,29.0,1.0,1.0,1.0
39.65,31.0,1.0,1.0,1.0
39.7,35.0,1.0,1.0,1.0
39.75,18.5056,1.0,1.0,1.0
39.8,86.4944,1.0,1.0,1.0
39.85,28.0,1.0,1.0,1.0
39.9,23.0,1.0,1.0,1.0
39.95,30.0,1.0,1.0,1.0
40.0,37.0,1.0,1.0,1.0
40.05,33.0111,1.0,1.0,1.0
40.1,22.0,1.0,1.0,1.0
40.15,44.5056,1.0,1.0,1.0
40.2,23.0,1.0,1.0,1.0
40.25,37.0,1.0,1.0,1.0
40.3,19.0,1.0,1.0,1.0
40.35,28.0,1.0,1.0,1.0
40.4,21.0,1.0,1.0,1.0
40.45,28.5056,1.0,1.0,1.0
40.5,28.4944,1.0,1.0,1.0
40.55,36.5056,1.0,1.0,1.0
40.6,30.5056,1.0,1.0,1.0
40.65,31.9889,1.0,1.0,1.0
40.7,37.0,1.0,1.0,1.0
40.75,15.0,1.0,1.0,1.0
40.8,33.0,1.0,1.0,1.0
40.85,36.0,1.0,1.0,1.0
40.9,35.5056,1.0,1.0,1.0
40.95,28.0,1.0,1.0,1.0
41.0,29.0,1.0,1.0,1.0
41.05,39.0,1.0,1.0,1.0
41.1,31.0,1.0,1.0,1.0
41.15,38.0,1.0,1.0,1.0
41.2,39.0,1.0,1.0,1.0
41.25,44.5056,1.0,1.0,1.0
41.3,30.5167,1.0,1.0,1.0
41.35,44.4944,1.0,1.0,1.0
41.4,43.5056,1.0,1.0,1.0
41.45,33.0,1.0,1.0,1.0
41.5,32.9889,1.0,1.0,1.0
41.55,45.4944,1.0,1.0,1.0
41.6,68.0,1.0,1.0,1.0
41.65,36.0111,1.0,1.0,1.0
41.7,49.4944,1.0,1.0,1.0
41.75,36.4944,1.0,1.0,1.0
41.8,68.0,1.0,1.0,1.0
41.85,67.0,1.0,1.0,1.0
41.9,48.5056,1.0,1.0,1.0
41.95,44.0,1.0,1.0,1.0
42.0,41.0,1.0,1.0,1.0
42.05,38.0,1.0,1.0,1.0
42.1,31.0,1.0,1.0,1.0
42.15,32.5056,1.0,1.0,1.0
42.2,68.0,1.0,1.0,1.0
42.25,28.0111,1.0,1.0,1.0
42.3,34.9889,1.0,1.0,1.0
42.35,32.0111,1.0,1.0,1.0
42.4,38.5056,1.0,1.0,1.0
42.45,28.4944,1.0,1.0,1.0
42.5,48.0111,1.0,1.0,1.0
42.55,49.9889,1.0,1.0,1.0
42.6,37.5056,1.0,1.0,1.0
42.65,49.4944,1.0,1.0,1.0
42.7,20.0,1.0,1.0,1.0
42.75,36.0,1.0,1.0,1.0
42.8,41.5056,1.0,1.0,1.0
42.85,18.0,1.0,1.0,1.0
42.9,43.0,1.0,1.0,1.0
42.95,48.9889,1.0,1.0,1.0
43.0,46.4833,1.0,1.0,1.0
43.05,58.0111,1.0,1.0,1.0
43.1,35.9889,1.0,1.0,1.0
43.15,49.9889,1.0,1.0,1.0
43.2,53.0,1.0,1.0,1.0
43.25,62.0,1.0,1.0,1.0
43.3,50.0111,1.0,1.0,1.0
43.35,65.9889,1.0,1.0,1.0
43.4,118.5056,1.0,1.0,1.0
43.45,86.0,1.0,1.0,1.0
43.5,101.5167,1.0,1.0,1.0
43.55,144.5056,1.0,1.0,1.0
43.6,116.5167,1.0,1.0,1.0
43.65,140.5056,1.0,1.0,1.0
43.7,158.0111,1.0,1.0,1.0
43.75,185.0,1.0,1.0,1.0
43.8,178.9889,1.0,1.0,1.0
43.85,219.5056,1.0,1.0,1.0
43.9,206.4944,1.0,1.0,1.0
43.95,256.0,1.0,1.0,1.0
44.0,278.4611,1.0,1.0,1.0
44.05,318.0222,1.0,1.0,1.0
44.1,297.9778,1.0,1.0,1.0
44.15,338.4611,1.0,1.0,1.0
44.2,390.4944,1.0,1.0,1.0
44.25,434.45,1.0,1.0,1.0
44.3,420.9778,1.0,1.0,1.0
44.35,445.9778,1.0,1.0,1.0
44.4,530.0,1.0,1.0,1.0
44.45,528.9445,1.0,1.0,1.0
44.5,563.0111,1.0,1.0,1.0
44.55,624.9778,1.0,1.0,1.0
44.6,598.5056,1.0,1.0,1.0
44.65,609.5278,1.0,1.0,1.0
44.7,627.5167,1.0,1.0,1.0
44.75,690.4833,1.0,1.0,1.0
44.8,757.5056,1.0,1.0,1.0
44.85,743.55,1.0,1.0,1.0
44.9,788.5056,1.0,1.0,1.0
44.95,793.4944,1.0,1.0,1.0
45.0,835.4833,1.0,1.0,1.0
45.05,822.9889,1.0,1.0,1.0
45.1,853.4833,1.0,1.0,1.0
45.15,914.0111,1.0,1.0,1.0
45.2,928.9,1.0,1.0,1.0
45.25,902.9778,1.0,1.0,1.0
45.3,916.5278,1.0,1.0,1.0
45.35,924.5722,1.0,1.0,1.0
45.4,948.5167,1.0,1.0,1.0
45.45,915.0444,1.0,1.0,1.0
45.5,933.4944,1.0,1.0,1.0
45.55,1004.97,1.0,1.0,1.0
45.6,922.0,1.0,1.0,1.0
45.65,956.9556,1.0,1.0,1.0
45.7,979.4722,1.0,1.0,1.0
45.75,919.0111,1.0,1.0,1.0
45.8,966.9778,1.0,1.0,1.0
45.85,980.5278,1.0,1.0,1.0
45.9,888.4611,1.0,1.0,1.0
45.95,972.55,1.0,1.0,1.0
46.0,930.4722,1.0,1.0,1.0
46.05,882.0,1.0,1.0,1.0
46.1,892.4944,1.0,1.0,1.0
46.15,823.0222,1.0,1.0,1.0
46.2,810.5278,1.0,1.0,1.0
46.25,850.9445,1.0,1.0,1.0
46.3,874.0667,1.0,1.0,1.0
46.35,780.0333,1.0,1.0,1.0
46.4,803.5611,1.0,1.0,1.0
46.45,750.5167,1.0,1.0,1.0
46.5,780.0333,1.0,1.0,1.0
46.55,720.9667,1.0,1.0,1.0
46.6,725.0111,1.0,1.0,1.0
46.65,714.0222,1.0,1.0,1.0
46.7,694.0444,1.0,1.0,1.0
46.75,669.5056,1.0,1.0,1.0
46.8,651.4833,1.0,1.0,1.0
46.85,656.0,1.0,1.0,1.0
46.9,651.9556,1.0,1.0,1.0
46.95,653.4611,1.0,1.0,1.0
47.0,648.0,1.0,1.0,1.0
47.05,662.4833,1.0,1.0,1.0
47.1,694.0333,1.0,1.0,1.0
47.15,711.9778,1.0,1.0,1.0
47.2,742.0555,1.0,1.0,1.0
47.25,882.0222,1.0,1.0,1.0
47.3,876.9889,1.0,1.0,1.0
47.35,1012.51,1.0,1.0,1.0
47.4,1116.97,1.0,1.0,1.0
47.45,1401.51,1.0,1.0,1.0
47.5,1468.53,1.0,1.0,1.0
47.55,1820.04,1.0,1.0,1.0
47.6,2431.46,1.0,1.0,1.0
47.65,3116.06,1.0,1.0,1.0
47.7,4611.91,1.0,1.0,1.0
47.75,7245.88,1.0,1.0,1.0
47.8,14240.7,1.0,1.0,1.0
47.85,43116.7,1.0,1.0,1.0
47.9,2034674.5,1.0,1.0,1.0
47.95,8885400.0,1.0,1.0,1.0
48.0,4899475.0,1.0,1.0,1.0
48.05,1521129.125,1.0,1.0,1.0
48.1,39968,1.0,1.0,1.0
48.15,11498.333,1.0,1.0,1.0
48.2,5547.52,1.0,1.0,1.0
48.25,3263.51,1.0,1.0,1.0
48.3,2241.99,1.0,1.0,1.0
48.35,1569.52,1.0,1.0,1.0
48.4,1043.48,1.0,1.0,1.0
48.45,777.4611,1.0,1.0,1.0
48.5,627.5611,1.0,1.0,1.0
48.55,516.5056,1.0,1.0,1.0
48.6,410.5278,1.0,1.0,1.0
48.65,338.0111,1.0,1.0,1.0
48.7,313.4944,1.0,1.0,1.0
48.75,238.5167,1.0,1.0,1.0
48.8,202.0333,1.0,1.0,1.0
48.85,154.5056,1.0,1.0,1.0
48.9,185.4944,1.0,1.0,1.0
48.95,131.9889,1.0,1.0,1.0
49.0,145.9889,1.0,1.0,1.0
49.05,137.5056,1.0,1.0,1.0
49.1,110.0111,1.0,1.0,1.0
49.15,105.0,1.0,1.0,1.0
49.2,80.0111,1.0,1.0,1.0
49.25,91.0,1.0,1.0,1.0
49.3,102.5056,1.0,1.0,1.0
49.35,91.5056,1.0,1.0,1.0
49.4,68.5056,1.0,1.0,1.0
49.45,97.0,1.0,1.0,1.0
49.5,58.0,1.0,1.0,1.0
49.55,92.4944,1.0,1.0,1.0
49.6,83.4833,1.0,1.0,1.0
49.65,88.5056,1.0,1.0,1.0
49.7,59.5056,1.0,1.0,1.0
49.75,75.5056,1.0,1.0,1.0
49.8,70.0111,1.0,1.0,1.0
49.85,60.0111,1.0,1.0,1.0
49.9,53.9889,1.0,1.0,1.0
49.95,50.5056,1.0,1.0,1.0
50.0,69.4944,1.0,1.0,1.0