Folder: Analysis/XRD:XRR/STO/22055_STOL

File: 22055_STOL_XRD.csv
#twotheta, yobs, ycal, bkg, diff
38.0,0.0,1.0,1.0,1.0
38.05,2.0,1.0,1.0,1.0
38.1,0.0,1.0,1.0,1.0
38.15,2.0,1.0,1.0,1.0
38.2,0.0,1.0,1.0,1.0
38.25,0.0,1.0,1.0,1.0
38.3,3.0,1.0,1.0,1.0
38.35,0.0,1.0,1.0,1.0
38.4,1.4944,1.0,1.0,1.0
38.45,2.0,1.0,1.0,1.0
38.5,0.0,1.0,1.0,1.0
38.55,0.0,1.0,1.0,1.0
38.6,3.0,1.0,1.0,1.0
38.65,6.0,1.0,1.0,1.0
38.7,2.0,1.0,1.0,1.0
38.75,0.0,1.0,1.0,1.0
38.8,0.0,1.0,1.0,1.0
38.85,2.0,1.0,1.0,1.0
38.9,5.0,1.0,1.0,1.0
38.95,4.0,1.0,1.0,1.0
39.0,5.5056,1.0,1.0,1.0
39.05,2.0,1.0,1.0,1.0
39.1,0.0,1.0,1.0,1.0
39.15,0.0,1.0,1.0,1.0
39.2,2.0,1.0,1.0,1.0
39.25,1.0,1.0,1.0,1.0
39.3,0.0,1.0,1.0,1.0
39.35,2.0,1.0,1.0,1.0
39.4,0.0,1.0,1.0,1.0
39.45,7.5056,1.0,1.0,1.0
39.5,0.0,1.0,1.0,1.0
39.55,0.0,1.0,1.0,1.0
39.6,2.0,1.0,1.0,1.0
39.65,3.0,1.0,1.0,1.0
39.7,0.0,1.0,1.0,1.0
39.75,0.0,1.0,1.0,1.0
39.8,2.0,1.0,1.0,1.0
39.85,2.0,1.0,1.0,1.0
39.9,0.0,1.0,1.0,1.0
39.95,2.0,1.0,1.0,1.0
40.0,5.0,1.0,1.0,1.0
40.05,0.0,1.0,1.0,1.0
40.1,3.0,1.0,1.0,1.0
40.15,2.0,1.0,1.0,1.0
40.2,2.0,1.0,1.0,1.0
40.25,3.4944,1.0,1.0,1.0
40.3,4.0,1.0,1.0,1.0
40.35,0.0,1.0,1.0,1.0
40.4,0.0,1.0,1.0,1.0
40.45,5.0,1.0,1.0,1.0
40.5,2.0,1.0,1.0,1.0
40.55,0.0,1.0,1.0,1.0
40.6,0.0,1.0,1.0,1.0
40.65,2.0,1.0,1.0,1.0
40.7,0.0,1.0,1.0,1.0
40.75,3.0,1.0,1.0,1.0
40.8,4.0,1.0,1.0,1.0
40.85,2.0,1.0,1.0,1.0
40.9,3.0,1.0,1.0,1.0
40.95,4.0,1.0,1.0,1.0
41.0,0.0,1.0,1.0,1.0
41.05,2.0,1.0,1.0,1.0
41.1,4.0,1.0,1.0,1.0
41.15,0.0,1.0,1.0,1.0
41.2,3.0,1.0,1.0,1.0
41.25,4.0,1.0,1.0,1.0
41.3,0.0,1.0,1.0,1.0
41.35,0.0,1.0,1.0,1.0
41.4,0.0,1.0,1.0,1.0
41.45,2.0,1.0,1.0,1.0
41.5,2.0,1.0,1.0,1.0
41.55,0.0,1.0,1.0,1.0
41.6,0.0,1.0,1.0,1.0
41.65,3.5056,1.0,1.0,1.0
41.7,0.0,1.0,1.0,1.0
41.75,4.0,1.0,1.0,1.0
41.8,0.0,1.0,1.0,1.0
41.85,4.0,1.0,1.0,1.0
41.9,3.0,1.0,1.0,1.0
41.95,5.0,1.0,1.0,1.0
42.0,7.0,1.0,1.0,1.0
42.05,0.0,1.0,1.0,1.0
42.1,4.0,1.0,1.0,1.0
42.15,0.0,1.0,1.0,1.0
42.2,2.0,1.0,1.0,1.0
42.25,2.0,1.0,1.0,1.0
42.3,0.0,1.0,1.0,1.0
42.35,0.0,1.0,1.0,1.0
42.4,0.0,1.0,1.0,1.0
42.45,4.0,1.0,1.0,1.0
42.5,6.0,1.0,1.0,1.0
42.55,0.0,1.0,1.0,1.0
42.6,0.0,1.0,1.0,1.0
42.65,4.0,1.0,1.0,1.0
42.7,6.0,1.0,1.0,1.0
42.75,5.0,1.0,1.0,1.0
42.8,1.0,1.0,1.0,1.0
42.85,9.9889,1.0,1.0,1.0
42.9,3.0,1.0,1.0,1.0
42.95,12.0,1.0,1.0,1.0
43.0,9.5056,1.0,1.0,1.0
43.05,7.0,1.0,1.0,1.0
43.1,2.0,1.0,1.0,1.0
43.15,16.0,1.0,1.0,1.0
43.2,7.0,1.0,1.0,1.0
43.25,14.0,1.0,1.0,1.0
43.3,11.0,1.0,1.0,1.0
43.35,12.5056,1.0,1.0,1.0
43.4,19.0,1.0,1.0,1.0
43.45,20.5056,1.0,1.0,1.0
43.5,18.4944,1.0,1.0,1.0
43.55,28.0,1.0,1.0,1.0
43.6,31.9889,1.0,1.0,1.0
43.65,39.0,1.0,1.0,1.0
43.7,34.4944,1.0,1.0,1.0
43.75,30.0,1.0,1.0,1.0
43.8,33.0,1.0,1.0,1.0
43.85,49.0111,1.0,1.0,1.0
43.9,38.0,1.0,1.0,1.0
43.95,47.0,1.0,1.0,1.0
44.0,73.9889,1.0,1.0,1.0
44.05,49.0,1.0,1.0,1.0
44.1,60.9889,1.0,1.0,1.0
44.15,69.0,1.0,1.0,1.0
44.2,81.0,1.0,1.0,1.0
44.25,63.0,1.0,1.0,1.0
44.3,81.5056,1.0,1.0,1.0
44.35,76.9889,1.0,1.0,1.0
44.4,96.5167,1.0,1.0,1.0
44.45,81.4944,1.0,1.0,1.0
44.5,104.9889,1.0,1.0,1.0
44.55,81.0111,1.0,1.0,1.0
44.6,107.0,1.0,1.0,1.0
44.65,101.9889,1.0,1.0,1.0
44.7,127.4833,1.0,1.0,1.0
44.75,103.9889,1.0,1.0,1.0
44.8,141.5056,1.0,1.0,1.0
44.85,134.0,1.0,1.0,1.0
44.9,132.0111,1.0,1.0,1.0
44.95,123.4944,1.0,1.0,1.0
45.0,122.0222,1.0,1.0,1.0
45.05,121.9778,1.0,1.0,1.0
45.1,148.0222,1.0,1.0,1.0
45.15,132.0,1.0,1.0,1.0
45.2,150.9778,1.0,1.0,1.0
45.25,156.0,1.0,1.0,1.0
45.3,160.4944,1.0,1.0,1.0
45.35,177.5056,1.0,1.0,1.0
45.4,153.4833,1.0,1.0,1.0
45.45,130.0,1.0,1.0,1.0
45.5,163.4944,1.0,1.0,1.0
45.55,149.0111,1.0,1.0,1.0
45.6,186.4833,1.0,1.0,1.0
45.65,158.5167,1.0,1.0,1.0
45.7,163.9889,1.0,1.0,1.0
45.75,167.9889,1.0,1.0,1.0
45.8,176.0,1.0,1.0,1.0
45.85,179.5056,1.0,1.0,1.0
45.9,170.0111,1.0,1.0,1.0
45.95,193.0111,1.0,1.0,1.0
46.0,148.4944,1.0,1.0,1.0
46.05,163.4722,1.0,1.0,1.0
46.1,156.0222,1.0,1.0,1.0
46.15,130.4944,1.0,1.0,1.0
46.2,179.5167,1.0,1.0,1.0
46.25,189.4944,1.0,1.0,1.0
46.3,160.5056,1.0,1.0,1.0
46.35,154.9889,1.0,1.0,1.0
46.4,161.4611,1.0,1.0,1.0
46.45,182.5167,1.0,1.0,1.0
46.5,177.4833,1.0,1.0,1.0
46.55,176.5056,1.0,1.0,1.0
46.6,143.0,1.0,1.0,1.0
46.65,164.9889,1.0,1.0,1.0
46.7,169.0111,1.0,1.0,1.0
46.75,144.4833,1.0,1.0,1.0
46.8,162.0111,1.0,1.0,1.0
46.85,146.0222,1.0,1.0,1.0
46.9,183.0111,1.0,1.0,1.0
46.95,180.5167,1.0,1.0,1.0
47.0,142.9889,1.0,1.0,1.0
47.05,194.0333,1.0,1.0,1.0
47.1,164.0111,1.0,1.0,1.0
47.15,193.4722,1.0,1.0,1.0
47.2,206.5278,1.0,1.0,1.0
47.25,191.5056,1.0,1.0,1.0
47.3,215.5167,1.0,1.0,1.0
47.35,255.4944,1.0,1.0,1.0
47.4,265.0,1.0,1.0,1.0
47.45,306.5278,1.0,1.0,1.0
47.5,385.0222,1.0,1.0,1.0
47.55,409.5056,1.0,1.0,1.0
47.6,508.5389,1.0,1.0,1.0
47.65,637.9889,1.0,1.0,1.0
47.7,884.0111,1.0,1.0,1.0
47.75,1314.99,1.0,1.0,1.0
47.8,3589.17,1.0,1.0,1.0
47.85,4812.02,1.0,1.0,1.0
47.9,14277,1.0,1.0,1.0
47.95,387170,1.0,1.0,1.0
48.0,1940215.375,1.0,1.0,1.0
48.05,285228,1.0,1.0,1.0
48.1,8042.85,1.0,1.0,1.0
48.15,2614.03,1.0,1.0,1.0
48.2,1285.0,1.0,1.0,1.0
48.25,795.9667,1.0,1.0,1.0
48.3,536.5056,1.0,1.0,1.0
48.35,340.4722,1.0,1.0,1.0
48.4,285.0222,1.0,1.0,1.0
48.45,184.4944,1.0,1.0,1.0
48.5,156.0,1.0,1.0,1.0
48.55,120.0111,1.0,1.0,1.0
48.6,100.0,1.0,1.0,1.0
48.65,53.5056,1.0,1.0,1.0
48.7,57.0,1.0,1.0,1.0
48.75,45.5167,1.0,1.0,1.0
48.8,43.0,1.0,1.0,1.0
48.85,30.4944,1.0,1.0,1.0
48.9,33.5056,1.0,1.0,1.0
48.95,24.4944,1.0,1.0,1.0
49.0,14.5056,1.0,1.0,1.0
49.05,15.0,1.0,1.0,1.0
49.1,16.0,1.0,1.0,1.0
49.15,6.4944,1.0,1.0,1.0
49.2,21.0111,1.0,1.0,1.0
49.25,9.0,1.0,1.0,1.0
49.3,10.0,1.0,1.0,1.0
49.35,9.0,1.0,1.0,1.0
49.4,6.0,1.0,1.0,1.0
49.45,0.4944,1.0,1.0,1.0
49.5,2.0,1.0,1.0,1.0
49.55,9.0,1.0,1.0,1.0
49.6,10.0,1.0,1.0,1.0
49.65,10.0,1.0,1.0,1.0
49.7,2.4944,1.0,1.0,1.0
49.75,7.0,1.0,1.0,1.0
49.8,0.0,1.0,1.0,1.0
49.85,2.0,1.0,1.0,1.0
49.9,0.0,1.0,1.0,1.0
49.95,0.4944,1.0,1.0,1.0
50.0,9.0,1.0,1.0,1.0
50.05,2.0,1.0,1.0,1.0
50.1,8.0,1.0,1.0,1.0
50.15,2.0,1.0,1.0,1.0
50.2,6.0,1.0,1.0,1.0
50.25,9.0,1.0,1.0,1.0
50.3,2.0,1.0,1.0,1.0
50.35,2.0,1.0,1.0,1.0
50.4,2.0,1.0,1.0,1.0
50.45,3.5056,1.0,1.0,1.0
50.5,6.0,1.0,1.0,1.0
50.55,3.0,1.0,1.0,1.0
50.6,5.0,1.0,1.0,1.0
50.65,4.0,1.0,1.0,1.0
50.7,4.4944,1.0,1.0,1.0
50.75,3.0,1.0,1.0,1.0
50.8,0.0,1.0,1.0,1.0
50.85,6.0,1.0,1.0,1.0
50.9,2.0,1.0,1.0,1.0
50.95,4.0,1.0,1.0,1.0
51.0,2.0,1.0,1.0,1.0
51.05,7.0,1.0,1.0,1.0
51.1,0.0,1.0,1.0,1.0
51.15,2.0,1.0,1.0,1.0
51.2,2.0,1.0,1.0,1.0
51.25,6.0,1.0,1.0,1.0
51.3,2.0,1.0,1.0,1.0
51.35,0.0,1.0,1.0,1.0
51.4,4.0,1.0,1.0,1.0
51.45,2.0,1.0,1.0,1.0
51.5,7.0,1.0,1.0,1.0
51.55,1.5056,1.0,1.0,1.0
51.6,5.0,1.0,1.0,1.0
51.65,0.0,1.0,1.0,1.0
51.7,2.0,1.0,1.0,1.0
51.75,2.0,1.0,1.0,1.0
51.8,5.0,1.0,1.0,1.0
51.85,0.0,1.0,1.0,1.0
51.9,2.0,1.0,1.0,1.0
51.95,0.5056,1.0,1.0,1.0
52.0,6.4944,1.0,1.0,1.0