Folder: Analysis/XRD:XRR/STO/22058_STOS

File: 22058_STOS_XRD.csv
#twotheta, yobs, ycal, bkg, diff
38.0,21.5056,1.0,1.0,1.0
38.05,8.4944,1.0,1.0,1.0
38.1,25.5056,1.0,1.0,1.0
38.15,18.0,1.0,1.0,1.0
38.2,40.0,1.0,1.0,1.0
38.25,46.5056,1.0,1.0,1.0
38.3,21.0,1.0,1.0,1.0
38.35,36.4944,1.0,1.0,1.0
38.4,28.0,1.0,1.0,1.0
38.45,36.0,1.0,1.0,1.0
38.5,23.4944,1.0,1.0,1.0
38.55,28.5056,1.0,1.0,1.0
38.6,39.4944,1.0,1.0,1.0
38.65,39.0,1.0,1.0,1.0
38.7,47.5056,1.0,1.0,1.0
38.75,25.5056,1.0,1.0,1.0
38.8,37.4944,1.0,1.0,1.0
38.85,32.9889,1.0,1.0,1.0
38.9,31.0,1.0,1.0,1.0
38.95,17.4944,1.0,1.0,1.0
39.0,31.0,1.0,1.0,1.0
39.05,32.9889,1.0,1.0,1.0
39.1,38.4944,1.0,1.0,1.0
39.15,10.0,1.0,1.0,1.0
39.2,35.0111,1.0,1.0,1.0
39.25,30.0,1.0,1.0,1.0
39.3,33.0,1.0,1.0,1.0
39.35,36.9889,1.0,1.0,1.0
39.4,31.0,1.0,1.0,1.0
39.45,21.0,1.0,1.0,1.0
39.5,28.5056,1.0,1.0,1.0
39.55,46.4944,1.0,1.0,1.0
39.6,22.4944,1.0,1.0,1.0
39.65,39.0,1.0,1.0,1.0
39.7,53.4944,1.0,1.0,1.0
39.75,64.0,1.0,1.0,1.0
39.8,30.0,1.0,1.0,1.0
39.85,52.0,1.0,1.0,1.0
39.9,64.0,1.0,1.0,1.0
39.95,73.4944,1.0,1.0,1.0
40.0,49.4833,1.0,1.0,1.0
40.05,52.9889,1.0,1.0,1.0
40.1,51.9889,1.0,1.0,1.0
40.15,48.9889,1.0,1.0,1.0
40.2,57.5056,1.0,1.0,1.0
40.25,51.0111,1.0,1.0,1.0
40.3,59.5056,1.0,1.0,1.0
40.35,57.0,1.0,1.0,1.0
40.4,30.4944,1.0,1.0,1.0
40.45,29.5056,1.0,1.0,1.0
40.5,41.5056,1.0,1.0,1.0
40.55,30.5056,1.0,1.0,1.0
40.6,45.9778,1.0,1.0,1.0
40.65,24.0,1.0,1.0,1.0
40.7,54.0111,1.0,1.0,1.0
40.75,22.0,1.0,1.0,1.0
40.8,20.0,1.0,1.0,1.0
40.85,36.0,1.0,1.0,1.0
40.9,39.5167,1.0,1.0,1.0
40.95,57.5056,1.0,1.0,1.0
41.0,54.5056,1.0,1.0,1.0
41.05,65.5056,1.0,1.0,1.0
41.1,71.4944,1.0,1.0,1.0
41.15,68.4833,1.0,1.0,1.0
41.2,67.0111,1.0,1.0,1.0
41.25,82.9778,1.0,1.0,1.0
41.3,96.0,1.0,1.0,1.0
41.35,116.4944,1.0,1.0,1.0
41.4,83.0,1.0,1.0,1.0
41.45,78.5056,1.0,1.0,1.0
41.5,82.0111,1.0,1.0,1.0
41.55,85.4944,1.0,1.0,1.0
41.6,56.4722,1.0,1.0,1.0
41.65,75.9889,1.0,1.0,1.0
41.7,56.4944,1.0,1.0,1.0
41.75,50.0111,1.0,1.0,1.0
41.8,63.0,1.0,1.0,1.0
41.85,57.9889,1.0,1.0,1.0
41.9,49.5056,1.0,1.0,1.0
41.95,53.4944,1.0,1.0,1.0
42.0,27.0111,1.0,1.0,1.0
42.05,28.4944,1.0,1.0,1.0
42.1,38.4944,1.0,1.0,1.0
42.15,54.5167,1.0,1.0,1.0
42.2,59.0,1.0,1.0,1.0
42.25,56.4944,1.0,1.0,1.0
42.3,51.4833,1.0,1.0,1.0
42.35,49.0,1.0,1.0,1.0
42.4,90.5056,1.0,1.0,1.0
42.45,99.5056,1.0,1.0,1.0
42.5,145.0111,1.0,1.0,1.0
42.55,153.4833,1.0,1.0,1.0
42.6,136.5056,1.0,1.0,1.0
42.65,146.5056,1.0,1.0,1.0
42.7,177.5167,1.0,1.0,1.0
42.75,197.5167,1.0,1.0,1.0
42.8,212.9889,1.0,1.0,1.0
42.85,165.5167,1.0,1.0,1.0
42.9,185.0,1.0,1.0,1.0
42.95,165.0,1.0,1.0,1.0
43.0,166.9889,1.0,1.0,1.0
43.05,161.4944,1.0,1.0,1.0
43.1,151.9889,1.0,1.0,1.0
43.15,119.4722,1.0,1.0,1.0
43.2,123.4944,1.0,1.0,1.0
43.25,83.0,1.0,1.0,1.0
43.3,72.5056,1.0,1.0,1.0
43.35,68.4833,1.0,1.0,1.0
43.4,72.9889,1.0,1.0,1.0
43.45,59.0,1.0,1.0,1.0
43.5,79.0111,1.0,1.0,1.0
43.55,83.0111,1.0,1.0,1.0
43.6,114.9778,1.0,1.0,1.0
43.65,144.0,1.0,1.0,1.0
43.7,178.4722,1.0,1.0,1.0
43.75,189.4944,1.0,1.0,1.0
43.8,244.55,1.0,1.0,1.0
43.85,295.0111,1.0,1.0,1.0
43.9,341.5278,1.0,1.0,1.0
43.95,352.5167,1.0,1.0,1.0
44.0,393.4611,1.0,1.0,1.0
44.05,449.5056,1.0,1.0,1.0
44.1,453.5389,1.0,1.0,1.0
44.15,538.9889,1.0,1.0,1.0
44.2,509.4944,1.0,1.0,1.0
44.25,506.0111,1.0,1.0,1.0
44.3,444.5167,1.0,1.0,1.0
44.35,465.9667,1.0,1.0,1.0
44.4,427.4944,1.0,1.0,1.0
44.45,376.5056,1.0,1.0,1.0
44.5,316.4833,1.0,1.0,1.0
44.55,291.9778,1.0,1.0,1.0
44.6,258.5056,1.0,1.0,1.0
44.65,289.5056,1.0,1.0,1.0
44.7,267.4833,1.0,1.0,1.0
44.75,273.5278,1.0,1.0,1.0
44.8,331.9889,1.0,1.0,1.0
44.85,414.0222,1.0,1.0,1.0
44.9,618.0111,1.0,1.0,1.0
44.95,964.45,1.0,1.0,1.0
45.0,1023.46,1.0,1.0,1.0
45.05,1293.47,1.0,1.0,1.0
45.1,1785.52,1.0,1.0,1.0
45.15,2238.46,1.0,1.0,1.0
45.2,2772.26,1.0,1.0,1.0
45.25,3344.02,1.0,1.0,1.0
45.3,4144.08,1.0,1.0,1.0
45.35,4956.45,1.0,1.0,1.0
45.4,5602.57,1.0,1.0,1.0
45.45,6684.57,1.0,1.0,1.0
45.5,7698.92,1.0,1.0,1.0
45.55,8513.89,1.0,1.0,1.0
45.6,9649.44,1.0,1.0,1.0
45.65,10618,1.0,1.0,1.0
45.7,11644.6,1.0,1.0,1.0
45.75,12925,1.0,1.0,1.0
45.8,13679.6,1.0,1.0,1.0
45.85,15289.4,1.0,1.0,1.0
45.9,15854,1.0,1.0,1.0
45.95,16641.4,1.0,1.0,1.0
46.0,17852.1,1.0,1.0,1.0
46.05,18482.3,1.0,1.0,1.0
46.1,19617.9,1.0,1.0,1.0
46.15,19967,1.0,1.0,1.0
46.2,20728.3,1.0,1.0,1.0
46.25,21156.4,1.0,1.0,1.0
46.3,21754.7,1.0,1.0,1.0
46.35,22336.2,1.0,1.0,1.0
46.4,23133.3,1.0,1.0,1.0
46.45,23630.4,1.0,1.0,1.0
46.5,24527.8,1.0,1.0,1.0
46.55,25835.7,1.0,1.0,1.0
46.6,28048.3,1.0,1.0,1.0
46.65,31570,1.0,1.0,1.0
46.7,38043.7,1.0,1.0,1.0
46.75,51064.6,1.0,1.0,1.0
46.8,83338,1.0,1.0,1.0
46.85,203987,1.0,1.0,1.0
46.9,1264528.875,1.0,1.0,1.0
46.95,67401184.0,1.0,1.0,1.0
47.0,345454,1.0,1.0,1.0
47.05,79948.5,1.0,1.0,1.0
47.1,36058.9,1.0,1.0,1.0
47.15,21167.9,1.0,1.0,1.0
47.2,14072.7,1.0,1.0,1.0
47.25,9995.04,1.0,1.0,1.0
47.3,7322.11,1.0,1.0,1.0
47.35,5457.01,1.0,1.0,1.0
47.4,4054.03,1.0,1.0,1.0
47.45,3074.561,1.0,1.0,1.0
47.5,2382.57,1.0,1.0,1.0
47.55,1746.06,1.0,1.0,1.0
47.6,1315.54,1.0,1.0,1.0
47.65,986.4056,1.0,1.0,1.0
47.7,705.5056,1.0,1.0,1.0
47.75,512.4944,1.0,1.0,1.0
47.8,366.0,1.0,1.0,1.0
47.85,279.9556,1.0,1.0,1.0
47.9,219.4722,1.0,1.0,1.0
47.95,207.4944,1.0,1.0,1.0
48.0,226.0,1.0,1.0,1.0
48.05,210.4944,1.0,1.0,1.0
48.1,193.0,1.0,1.0,1.0
48.15,290.5056,1.0,1.0,1.0
48.2,263.0,1.0,1.0,1.0
48.25,295.5278,1.0,1.0,1.0
48.3,294.4611,1.0,1.0,1.0
48.35,285.9778,1.0,1.0,1.0
48.4,315.9889,1.0,1.0,1.0
48.45,308.4611,1.0,1.0,1.0
48.5,340.4944,1.0,1.0,1.0
48.55,334.5056,1.0,1.0,1.0
48.6,306.5056,1.0,1.0,1.0
48.65,308.4944,1.0,1.0,1.0
48.7,281.0111,1.0,1.0,1.0
48.75,231.0111,1.0,1.0,1.0
48.8,212.0,1.0,1.0,1.0
48.85,176.4833,1.0,1.0,1.0
48.9,151.0111,1.0,1.0,1.0
48.95,144.0,1.0,1.0,1.0
49.0,107.5056,1.0,1.0,1.0
49.05,96.0111,1.0,1.0,1.0
49.1,86.4833,1.0,1.0,1.0
49.15,67.5056,1.0,1.0,1.0
49.2,63.0,1.0,1.0,1.0
49.25,28.9889,1.0,1.0,1.0
49.3,24.4944,1.0,1.0,1.0
49.35,46.5056,1.0,1.0,1.0
49.4,44.0111,1.0,1.0,1.0
49.45,59.0,1.0,1.0,1.0
49.5,48.0,1.0,1.0,1.0
49.55,52.4944,1.0,1.0,1.0
49.6,53.4944,1.0,1.0,1.0
49.65,90.4944,1.0,1.0,1.0
49.7,49.4944,1.0,1.0,1.0
49.75,54.0111,1.0,1.0,1.0
49.8,56.5056,1.0,1.0,1.0
49.85,44.5056,1.0,1.0,1.0
49.9,81.5167,1.0,1.0,1.0
49.95,74.4944,1.0,1.0,1.0
50.0,65.4833,1.0,1.0,1.0
50.05,65.4944,1.0,1.0,1.0
50.1,64.5056,1.0,1.0,1.0
50.15,57.0,1.0,1.0,1.0
50.2,90.9889,1.0,1.0,1.0
50.25,55.0,1.0,1.0,1.0
50.3,52.0,1.0,1.0,1.0
50.35,50.9778,1.0,1.0,1.0
50.4,44.4944,1.0,1.0,1.0
50.45,44.0,1.0,1.0,1.0
50.5,34.9889,1.0,1.0,1.0
50.55,39.5056,1.0,1.0,1.0
50.6,25.0,1.0,1.0,1.0
50.65,29.5056,1.0,1.0,1.0
50.7,21.0,1.0,1.0,1.0
50.75,21.0,1.0,1.0,1.0
50.8,16.0,1.0,1.0,1.0
50.85,21.5056,1.0,1.0,1.0
50.9,17.0,1.0,1.0,1.0
50.95,18.0,1.0,1.0,1.0
51.0,33.0,1.0,1.0,1.0
51.05,26.0,1.0,1.0,1.0
51.1,18.4944,1.0,1.0,1.0
51.15,37.5056,1.0,1.0,1.0
51.2,27.0,1.0,1.0,1.0
51.25,28.4944,1.0,1.0,1.0
51.3,28.5056,1.0,1.0,1.0
51.35,11.0,1.0,1.0,1.0
51.4,17.0,1.0,1.0,1.0
51.45,27.9889,1.0,1.0,1.0
51.5,30.4944,1.0,1.0,1.0
51.55,26.0,1.0,1.0,1.0
51.6,26.4944,1.0,1.0,1.0
51.65,24.0,1.0,1.0,1.0
51.7,33.4944,1.0,1.0,1.0
51.75,29.9889,1.0,1.0,1.0
51.8,18.4944,1.0,1.0,1.0
51.85,20.0,1.0,1.0,1.0
51.9,31.4944,1.0,1.0,1.0
51.95,28.0,1.0,1.0,1.0
52.0,18.4944,1.0,1.0,1.0