Folder: Analysis/XRD:XRR/STO/22056_STOL

File: 22056_STOL_XRD_002.csv
#twotheta, yobs, ycal, bkg, diff
38.0,18.5056,1.0,1.0,1.0
38.05,18.4944,1.0,1.0,1.0
38.1,19.4944,1.0,1.0,1.0
38.15,19.5056,1.0,1.0,1.0
38.2,14.0,1.0,1.0,1.0
38.25,11.0,1.0,1.0,1.0
38.3,16.4944,1.0,1.0,1.0
38.35,18.0,1.0,1.0,1.0
38.4,26.0,1.0,1.0,1.0
38.45,14.0,1.0,1.0,1.0
38.5,13.4833,1.0,1.0,1.0
38.55,12.5167,1.0,1.0,1.0
38.6,12.0,1.0,1.0,1.0
38.65,23.0,1.0,1.0,1.0
38.7,15.4944,1.0,1.0,1.0
38.75,28.4944,1.0,1.0,1.0
38.8,15.4833,1.0,1.0,1.0
38.85,23.5056,1.0,1.0,1.0
38.9,15.5056,1.0,1.0,1.0
38.95,19.5056,1.0,1.0,1.0
39.0,24.4944,1.0,1.0,1.0
39.05,9.0,1.0,1.0,1.0
39.1,21.4944,1.0,1.0,1.0
39.15,17.0,1.0,1.0,1.0
39.2,18.0,1.0,1.0,1.0
39.25,16.0,1.0,1.0,1.0
39.3,19.0,1.0,1.0,1.0
39.35,11.5056,1.0,1.0,1.0
39.4,19.0,1.0,1.0,1.0
39.45,12.9889,1.0,1.0,1.0
39.5,20.5056,1.0,1.0,1.0
39.55,13.0,1.0,1.0,1.0
39.6,18.0111,1.0,1.0,1.0
39.65,31.5056,1.0,1.0,1.0
39.7,18.0,1.0,1.0,1.0
39.75,23.0,1.0,1.0,1.0
39.8,19.0,1.0,1.0,1.0
39.85,15.0,1.0,1.0,1.0
39.9,23.5056,1.0,1.0,1.0
39.95,25.4944,1.0,1.0,1.0
40.0,11.9889,1.0,1.0,1.0
40.05,16.5056,1.0,1.0,1.0
40.1,22.5056,1.0,1.0,1.0
40.15,36.0,1.0,1.0,1.0
40.2,14.0,1.0,1.0,1.0
40.25,30.5056,1.0,1.0,1.0
40.3,32.0,1.0,1.0,1.0
40.35,16.0,1.0,1.0,1.0
40.4,25.5056,1.0,1.0,1.0
40.45,19.0,1.0,1.0,1.0
40.5,26.0,1.0,1.0,1.0
40.55,40.0,1.0,1.0,1.0
40.6,20.5167,1.0,1.0,1.0
40.65,18.0,1.0,1.0,1.0
40.7,10.5056,1.0,1.0,1.0
40.75,27.5056,1.0,1.0,1.0
40.8,27.4944,1.0,1.0,1.0
40.85,27.0,1.0,1.0,1.0
40.9,27.0,1.0,1.0,1.0
40.95,12.5056,1.0,1.0,1.0
41.0,13.0,1.0,1.0,1.0
41.05,25.0,1.0,1.0,1.0
41.1,22.0,1.0,1.0,1.0
41.15,23.4944,1.0,1.0,1.0
41.2,23.0,1.0,1.0,1.0
41.25,21.4944,1.0,1.0,1.0
41.3,22.5056,1.0,1.0,1.0
41.35,12.4944,1.0,1.0,1.0
41.4,17.0,1.0,1.0,1.0
41.45,17.5056,1.0,1.0,1.0
41.5,26.0,1.0,1.0,1.0
41.55,18.5056,1.0,1.0,1.0
41.6,16.0,1.0,1.0,1.0
41.65,15.5056,1.0,1.0,1.0
41.7,28.4944,1.0,1.0,1.0
41.75,12.5056,1.0,1.0,1.0
41.8,41.0,1.0,1.0,1.0
41.85,23.4944,1.0,1.0,1.0
41.9,19.5056,1.0,1.0,1.0
41.95,24.0,1.0,1.0,1.0
42.0,22.0,1.0,1.0,1.0
42.05,29.5056,1.0,1.0,1.0
42.1,23.9889,1.0,1.0,1.0
42.15,12.0,1.0,1.0,1.0
42.2,26.5056,1.0,1.0,1.0
42.25,31.0,1.0,1.0,1.0
42.3,24.0,1.0,1.0,1.0
42.35,27.0,1.0,1.0,1.0
42.4,29.4944,1.0,1.0,1.0
42.45,37.0,1.0,1.0,1.0
42.5,28.0,1.0,1.0,1.0
42.55,36.5056,1.0,1.0,1.0
42.6,26.4944,1.0,1.0,1.0
42.65,40.0,1.0,1.0,1.0
42.7,40.9778,1.0,1.0,1.0
42.75,55.0,1.0,1.0,1.0
42.8,49.0111,1.0,1.0,1.0
42.85,51.0,1.0,1.0,1.0
42.9,42.0,1.0,1.0,1.0
42.95,58.5167,1.0,1.0,1.0
43.0,60.4833,1.0,1.0,1.0
43.05,74.5056,1.0,1.0,1.0
43.1,84.4944,1.0,1.0,1.0
43.15,61.9889,1.0,1.0,1.0
43.2,76.5167,1.0,1.0,1.0
43.25,58.0,1.0,1.0,1.0
43.3,84.5167,1.0,1.0,1.0
43.35,106.5056,1.0,1.0,1.0
43.4,84.9889,1.0,1.0,1.0
43.45,114.5056,1.0,1.0,1.0
43.5,131.0,1.0,1.0,1.0
43.55,136.5056,1.0,1.0,1.0
43.6,143.9889,1.0,1.0,1.0
43.65,146.4944,1.0,1.0,1.0
43.7,173.4833,1.0,1.0,1.0
43.75,166.5056,1.0,1.0,1.0
43.8,158.9889,1.0,1.0,1.0
43.85,221.5056,1.0,1.0,1.0
43.9,192.0111,1.0,1.0,1.0
43.95,186.5278,1.0,1.0,1.0
44.0,198.0111,1.0,1.0,1.0
44.05,226.5167,1.0,1.0,1.0
44.1,207.9889,1.0,1.0,1.0
44.15,253.5167,1.0,1.0,1.0
44.2,255.4833,1.0,1.0,1.0
44.25,291.5389,1.0,1.0,1.0
44.3,294.0111,1.0,1.0,1.0
44.35,277.4944,1.0,1.0,1.0
44.4,321.5278,1.0,1.0,1.0
44.45,299.5056,1.0,1.0,1.0
44.5,344.0,1.0,1.0,1.0
44.55,356.0111,1.0,1.0,1.0
44.6,330.4944,1.0,1.0,1.0
44.65,343.9556,1.0,1.0,1.0
44.7,372.9778,1.0,1.0,1.0
44.75,349.5167,1.0,1.0,1.0
44.8,373.0,1.0,1.0,1.0
44.85,400.4722,1.0,1.0,1.0
44.9,473.4944,1.0,1.0,1.0
44.95,435.4722,1.0,1.0,1.0
45.0,435.9889,1.0,1.0,1.0
45.05,442.5167,1.0,1.0,1.0
45.1,465.5389,1.0,1.0,1.0
45.15,454.0,1.0,1.0,1.0
45.2,454.9889,1.0,1.0,1.0
45.25,481.9889,1.0,1.0,1.0
45.3,514.4722,1.0,1.0,1.0
45.35,515.0222,1.0,1.0,1.0
45.4,488.5056,1.0,1.0,1.0
45.45,523.0222,1.0,1.0,1.0
45.5,528.9667,1.0,1.0,1.0
45.55,486.9445,1.0,1.0,1.0
45.6,522.4833,1.0,1.0,1.0
45.65,569.5278,1.0,1.0,1.0
45.7,533.0,1.0,1.0,1.0
45.75,576.9889,1.0,1.0,1.0
45.8,623.0333,1.0,1.0,1.0
45.85,533.0444,1.0,1.0,1.0
45.9,566.9778,1.0,1.0,1.0
45.95,572.5167,1.0,1.0,1.0
46.0,663.4722,1.0,1.0,1.0
46.05,627.0,1.0,1.0,1.0
46.1,633.5167,1.0,1.0,1.0
46.15,654.4722,1.0,1.0,1.0
46.2,598.5056,1.0,1.0,1.0
46.25,623.5167,1.0,1.0,1.0
46.3,651.0111,1.0,1.0,1.0
46.35,634.45,1.0,1.0,1.0
46.4,679.5167,1.0,1.0,1.0
46.45,715.0,1.0,1.0,1.0
46.5,671.0111,1.0,1.0,1.0
46.55,648.9445,1.0,1.0,1.0
46.6,664.9667,1.0,1.0,1.0
46.65,712.0222,1.0,1.0,1.0
46.7,697.0,1.0,1.0,1.0
46.75,714.4389,1.0,1.0,1.0
46.8,768.9889,1.0,1.0,1.0
46.85,715.5278,1.0,1.0,1.0
46.9,823.5167,1.0,1.0,1.0
46.95,789.0333,1.0,1.0,1.0
47.0,819.0111,1.0,1.0,1.0
47.05,845.5389,1.0,1.0,1.0
47.1,889.5167,1.0,1.0,1.0
47.15,940.5167,1.0,1.0,1.0
47.2,1015.45,1.0,1.0,1.0
47.25,1114.98,1.0,1.0,1.0
47.3,1143.48,1.0,1.0,1.0
47.35,1230.47,1.0,1.0,1.0
47.4,1361.47,1.0,1.0,1.0
47.45,1505.57,1.0,1.0,1.0
47.5,1716.46,1.0,1.0,1.0
47.55,2009.97,1.0,1.0,1.0
47.6,2367.03,1.0,1.0,1.0
47.65,2877.02,1.0,1.0,1.0
47.7,3887.45,1.0,1.0,1.0
47.75,5548.84,1.0,1.0,1.0
47.8,8712.24,1.0,1.0,1.0
47.85,17139.8,1.0,1.0,1.0
47.9,50325.082,1.0,1.0,1.0
47.95,2543399.25,1.0,1.0,1.0
48.0,13453052.0,1.0,1.0,1.0
48.05,122212,1.0,1.0,1.0
48.1,26737.6,1.0,1.0,1.0
48.15,10999.5,1.0,1.0,1.0
48.2,5507.62,1.0,1.0,1.0
48.25,3414.0,1.0,1.0,1.0
48.3,2290.9,1.0,1.0,1.0
48.35,1644.07,1.0,1.0,1.0
48.4,1203.99,1.0,1.0,1.0
48.45,971.5389,1.0,1.0,1.0
48.5,740.5167,1.0,1.0,1.0
48.55,570.5056,1.0,1.0,1.0
48.6,475.0222,1.0,1.0,1.0
48.65,401.4722,1.0,1.0,1.0
48.7,372.5167,1.0,1.0,1.0
48.75,305.4944,1.0,1.0,1.0
48.8,253.0222,1.0,1.0,1.0
48.85,236.4833,1.0,1.0,1.0
48.9,194.9889,1.0,1.0,1.0
48.95,176.0111,1.0,1.0,1.0
49.0,129.9778,1.0,1.0,1.0
49.05,125.5278,1.0,1.0,1.0
49.1,131.4833,1.0,1.0,1.0
49.15,114.5167,1.0,1.0,1.0
49.2,92.0,1.0,1.0,1.0
49.25,85.9889,1.0,1.0,1.0
49.3,78.5056,1.0,1.0,1.0
49.35,95.9889,1.0,1.0,1.0
49.4,81.0,1.0,1.0,1.0
49.45,60.0,1.0,1.0,1.0
49.5,52.0111,1.0,1.0,1.0
49.55,51.9889,1.0,1.0,1.0
49.6,35.0111,1.0,1.0,1.0
49.65,60.4944,1.0,1.0,1.0
49.7,51.0,1.0,1.0,1.0
49.75,36.4944,1.0,1.0,1.0
49.8,36.0,1.0,1.0,1.0
49.85,28.4944,1.0,1.0,1.0
49.9,24.0,1.0,1.0,1.0
49.95,33.0,1.0,1.0,1.0
50.0,43.0,1.0,1.0,1.0