Folder: Analysis/XRD:XRR/STO/22064_STON

File: 22064_STON_XRD.csv
#twotheta, yobs, ycal, bkg, diff
42.0,36.9889,1.0,1.0,1.0
42.04,51.0,1.0,1.0,1.0
42.08,35.5167,1.0,1.0,1.0
42.12,40.4944,1.0,1.0,1.0
42.16,53.4944,1.0,1.0,1.0
42.2,27.4944,1.0,1.0,1.0
42.24,41.4944,1.0,1.0,1.0
42.28,33.0,1.0,1.0,1.0
42.32,35.0,1.0,1.0,1.0
42.36,44.4944,1.0,1.0,1.0
42.4,46.5056,1.0,1.0,1.0
42.44,80.4944,1.0,1.0,1.0
42.48,62.0,1.0,1.0,1.0
42.52,72.9889,1.0,1.0,1.0
42.56,65.4944,1.0,1.0,1.0
42.6,69.5056,1.0,1.0,1.0
42.64,62.9889,1.0,1.0,1.0
42.68,88.5056,1.0,1.0,1.0
42.72,71.4944,1.0,1.0,1.0
42.76,83.9889,1.0,1.0,1.0
42.8,87.5167,1.0,1.0,1.0
42.84,86.4944,1.0,1.0,1.0
42.88,77.5278,1.0,1.0,1.0
42.92,68.4944,1.0,1.0,1.0
42.96,74.5056,1.0,1.0,1.0
43.0,72.4944,1.0,1.0,1.0
43.04,70.0,1.0,1.0,1.0
43.08,50.0,1.0,1.0,1.0
43.12,64.0,1.0,1.0,1.0
43.16,47.0,1.0,1.0,1.0
43.2,61.0,1.0,1.0,1.0
43.24,55.9889,1.0,1.0,1.0
43.28,33.0111,1.0,1.0,1.0
43.32,62.0,1.0,1.0,1.0
43.36,63.9889,1.0,1.0,1.0
43.4,61.0111,1.0,1.0,1.0
43.44,60.5056,1.0,1.0,1.0
43.48,61.9889,1.0,1.0,1.0
43.52,83.4944,1.0,1.0,1.0
43.56,106.0,1.0,1.0,1.0
43.6,109.5056,1.0,1.0,1.0
43.64,126.4833,1.0,1.0,1.0
43.68,116.9778,1.0,1.0,1.0
43.72,170.0222,1.0,1.0,1.0
43.76,158.5056,1.0,1.0,1.0
43.8,185.0,1.0,1.0,1.0
43.84,213.4833,1.0,1.0,1.0
43.88,185.0,1.0,1.0,1.0
43.92,206.0111,1.0,1.0,1.0
43.96,196.4944,1.0,1.0,1.0
44.0,224.9667,1.0,1.0,1.0
44.04,227.4944,1.0,1.0,1.0
44.08,179.5056,1.0,1.0,1.0
44.12,216.0,1.0,1.0,1.0
44.16,192.0333,1.0,1.0,1.0
44.2,172.5056,1.0,1.0,1.0
44.24,141.0,1.0,1.0,1.0
44.28,120.0,1.0,1.0,1.0
44.32,114.4944,1.0,1.0,1.0
44.36,92.5056,1.0,1.0,1.0
44.4,65.0,1.0,1.0,1.0
44.44,49.4944,1.0,1.0,1.0
44.48,62.9889,1.0,1.0,1.0
44.52,82.4833,1.0,1.0,1.0
44.56,92.4944,1.0,1.0,1.0
44.6,146.5056,1.0,1.0,1.0
44.64,165.5056,1.0,1.0,1.0
44.68,243.4833,1.0,1.0,1.0
44.72,316.4944,1.0,1.0,1.0
44.76,461.4833,1.0,1.0,1.0
44.8,583.9222,1.0,1.0,1.0
44.84,726.0111,1.0,1.0,1.0
44.88,973.0555,1.0,1.0,1.0
44.92,1138.54,1.0,1.0,1.0
44.96,1395.54,1.0,1.0,1.0
45.0,1699.01,1.0,1.0,1.0
45.04,2067.07,1.0,1.0,1.0
45.08,2362.41,1.0,1.0,1.0
45.12,2726.9,1.0,1.0,1.0
45.16,3095.94,1.0,1.0,1.0
45.2,3518.93,1.0,1.0,1.0
45.24,3979.11,1.0,1.0,1.0
45.28,4266.91,1.0,1.0,1.0
45.32,4764.66,1.0,1.0,1.0
45.36,5239.38,1.0,1.0,1.0
45.4,5449.62,1.0,1.0,1.0
45.44,6019.62,1.0,1.0,1.0
45.48,6280.439,1.0,1.0,1.0
45.52,6629.97,1.0,1.0,1.0
45.56,7066.94,1.0,1.0,1.0
45.6,7436.52,1.0,1.0,1.0
45.64,7591.78,1.0,1.0,1.0
45.68,7892.54,1.0,1.0,1.0
45.72,8076.07,1.0,1.0,1.0
45.76,8189.07,1.0,1.0,1.0
45.8,8270.49,1.0,1.0,1.0
45.84,8419.65,1.0,1.0,1.0
45.88,8167.14,1.0,1.0,1.0
45.92,8162.53,1.0,1.0,1.0
45.96,7882.561,1.0,1.0,1.0
46.0,7790.55,1.0,1.0,1.0
46.04,7543.57,1.0,1.0,1.0
46.08,7270.96,1.0,1.0,1.0
46.12,7030.01,1.0,1.0,1.0
46.16,6754.18,1.0,1.0,1.0
46.2,6280.13,1.0,1.0,1.0
46.24,5834.04,1.0,1.0,1.0
46.28,5565.01,1.0,1.0,1.0
46.32,5048.59,1.0,1.0,1.0
46.36,4666.49,1.0,1.0,1.0
46.4,4270.82,1.0,1.0,1.0
46.44,3863.96,1.0,1.0,1.0
46.48,3570.55,1.0,1.0,1.0
46.52,3540.99,1.0,1.0,1.0
46.56,3081.49,1.0,1.0,1.0
46.6,3218.12,1.0,1.0,1.0
46.64,3294.37,1.0,1.0,1.0
46.68,3594.94,1.0,1.0,1.0
46.72,4381.02,1.0,1.0,1.0
46.76,5561.89,1.0,1.0,1.0
46.8,7558.0,1.0,1.0,1.0
46.84,11393.2,1.0,1.0,1.0
46.88,19885.7,1.0,1.0,1.0
46.92,40261.6,1.0,1.0,1.0
46.96,116988,1.0,1.0,1.0
47.0,951542,1.0,1.0,1.0
47.04,3358253.75,1.0,1.0,1.0
47.08,175892,1.0,1.0,1.0
47.12,48055.2,1.0,1.0,1.0
47.16,21247.4,1.0,1.0,1.0
47.2,11034.583,1.0,1.0,1.0
47.24,6730.46,1.0,1.0,1.0
47.28,4155.52,1.0,1.0,1.0
47.32,2902.439,1.0,1.0,1.0
47.36,2069.48,1.0,1.0,1.0
47.4,1469.48,1.0,1.0,1.0
47.44,1097.03,1.0,1.0,1.0
47.48,945.5278,1.0,1.0,1.0
47.52,774.5278,1.0,1.0,1.0
47.56,679.0111,1.0,1.0,1.0
47.6,659.5056,1.0,1.0,1.0
47.64,625.4944,1.0,1.0,1.0
47.68,613.0222,1.0,1.0,1.0
47.72,560.0222,1.0,1.0,1.0
47.76,582.5389,1.0,1.0,1.0
47.8,556.9889,1.0,1.0,1.0
47.84,512.9778,1.0,1.0,1.0
47.88,481.5056,1.0,1.0,1.0
47.92,494.0222,1.0,1.0,1.0
47.96,482.5167,1.0,1.0,1.0
48.0,490.9778,1.0,1.0,1.0
48.04,395.4722,1.0,1.0,1.0
48.08,364.5056,1.0,1.0,1.0
48.12,343.0333,1.0,1.0,1.0
48.16,286.0111,1.0,1.0,1.0
48.2,216.4722,1.0,1.0,1.0
48.24,239.4944,1.0,1.0,1.0
48.28,194.0,1.0,1.0,1.0
48.32,166.0,1.0,1.0,1.0
48.36,117.0,1.0,1.0,1.0
48.4,106.9778,1.0,1.0,1.0
48.44,95.0222,1.0,1.0,1.0
48.48,84.4833,1.0,1.0,1.0
48.52,60.0111,1.0,1.0,1.0
48.56,82.0,1.0,1.0,1.0
48.6,47.0,1.0,1.0,1.0
48.64,34.0,1.0,1.0,1.0
48.68,57.9889,1.0,1.0,1.0
48.72,62.0111,1.0,1.0,1.0
48.76,45.0,1.0,1.0,1.0
48.8,56.5056,1.0,1.0,1.0
48.84,57.0,1.0,1.0,1.0
48.88,74.4944,1.0,1.0,1.0
48.92,92.0,1.0,1.0,1.0
48.96,49.0111,1.0,1.0,1.0
49.0,75.0,1.0,1.0,1.0
49.04,74.0,1.0,1.0,1.0
49.08,65.0,1.0,1.0,1.0
49.12,92.0222,1.0,1.0,1.0
49.16,94.0,1.0,1.0,1.0
49.2,81.0111,1.0,1.0,1.0
49.24,86.4944,1.0,1.0,1.0
49.28,89.4944,1.0,1.0,1.0
49.32,76.0,1.0,1.0,1.0
49.36,103.0,1.0,1.0,1.0
49.4,72.0,1.0,1.0,1.0
49.44,66.0,1.0,1.0,1.0
49.48,64.0,1.0,1.0,1.0
49.52,57.5056,1.0,1.0,1.0
49.56,47.5056,1.0,1.0,1.0
49.6,48.0,1.0,1.0,1.0
49.64,44.4833,1.0,1.0,1.0
49.68,24.4944,1.0,1.0,1.0
49.72,38.5056,1.0,1.0,1.0
49.76,36.0111,1.0,1.0,1.0
49.8,22.0,1.0,1.0,1.0
49.84,17.0,1.0,1.0,1.0
49.88,47.0,1.0,1.0,1.0
49.92,29.4944,1.0,1.0,1.0
49.96,25.9889,1.0,1.0,1.0
50.0,37.5056,1.0,1.0,1.0
50.04,27.5056,1.0,1.0,1.0
50.08,34.0111,1.0,1.0,1.0
50.12,40.0,1.0,1.0,1.0
50.16,24.0,1.0,1.0,1.0
50.2,51.9889,1.0,1.0,1.0
50.24,61.4944,1.0,1.0,1.0
50.28,45.9889,1.0,1.0,1.0
50.32,58.5056,1.0,1.0,1.0
50.36,39.4944,1.0,1.0,1.0
50.4,55.0111,1.0,1.0,1.0
50.44,43.0,1.0,1.0,1.0
50.48,40.0,1.0,1.0,1.0
50.52,32.0111,1.0,1.0,1.0
50.56,40.9889,1.0,1.0,1.0
50.6,37.5167,1.0,1.0,1.0
50.64,32.9889,1.0,1.0,1.0
50.68,33.0111,1.0,1.0,1.0
50.72,26.0111,1.0,1.0,1.0
50.76,22.4944,1.0,1.0,1.0
50.8,34.5056,1.0,1.0,1.0
50.84,33.4944,1.0,1.0,1.0
50.88,42.5056,1.0,1.0,1.0
50.92,36.5056,1.0,1.0,1.0
50.96,23.0,1.0,1.0,1.0
51.0,18.4833,1.0,1.0,1.0
51.04,26.0,1.0,1.0,1.0
51.08,39.4944,1.0,1.0,1.0
51.12,17.4944,1.0,1.0,1.0
51.16,27.5056,1.0,1.0,1.0
51.2,38.9889,1.0,1.0,1.0
51.24,17.0,1.0,1.0,1.0
51.28,37.5056,1.0,1.0,1.0
51.32,29.9889,1.0,1.0,1.0
51.36,26.0,1.0,1.0,1.0
51.4,26.4944,1.0,1.0,1.0
51.44,25.0111,1.0,1.0,1.0
51.48,24.4944,1.0,1.0,1.0
51.52,23.4944,1.0,1.0,1.0
51.56,24.0111,1.0,1.0,1.0
51.6,19.0111,1.0,1.0,1.0
51.64,38.9889,1.0,1.0,1.0
51.68,20.0,1.0,1.0,1.0
51.72,36.9889,1.0,1.0,1.0
51.76,40.0,1.0,1.0,1.0
51.8,27.9889,1.0,1.0,1.0
51.84,31.4944,1.0,1.0,1.0
51.88,26.5056,1.0,1.0,1.0
51.92,26.0,1.0,1.0,1.0
51.96,36.0,1.0,1.0,1.0
52.0,41.0,1.0,1.0,1.0