Folder: Analysis/XRD:XRR/STO/22062_STOA

File: 22062_STOA_XRD_002.csv
#twotheta, yobs, ycal, bkg, diff
41.0,53.4944,1.0,1.0,1.0
41.04,56.4944,1.0,1.0,1.0
41.08,62.5167,1.0,1.0,1.0
41.12,63.4833,1.0,1.0,1.0
41.16,53.4833,1.0,1.0,1.0
41.2,37.0,1.0,1.0,1.0
41.24,66.5056,1.0,1.0,1.0
41.28,87.0111,1.0,1.0,1.0
41.32,44.5056,1.0,1.0,1.0
41.36,74.0,1.0,1.0,1.0
41.4,54.0,1.0,1.0,1.0
41.44,55.5056,1.0,1.0,1.0
41.48,43.5056,1.0,1.0,1.0
41.52,64.4944,1.0,1.0,1.0
41.56,49.5056,1.0,1.0,1.0
41.6,49.0111,1.0,1.0,1.0
41.64,56.9889,1.0,1.0,1.0
41.68,65.4944,1.0,1.0,1.0
41.72,70.0,1.0,1.0,1.0
41.76,39.5056,1.0,1.0,1.0
41.8,64.0,1.0,1.0,1.0
41.84,56.5056,1.0,1.0,1.0
41.88,74.9889,1.0,1.0,1.0
41.92,62.5056,1.0,1.0,1.0
41.96,62.0,1.0,1.0,1.0
42.0,50.9889,1.0,1.0,1.0
42.04,63.9889,1.0,1.0,1.0
42.08,72.9889,1.0,1.0,1.0
42.12,65.0,1.0,1.0,1.0
42.16,86.5056,1.0,1.0,1.0
42.2,78.0111,1.0,1.0,1.0
42.24,61.0,1.0,1.0,1.0
42.28,68.0111,1.0,1.0,1.0
42.32,75.0111,1.0,1.0,1.0
42.36,62.0111,1.0,1.0,1.0
42.4,69.4944,1.0,1.0,1.0
42.44,61.0,1.0,1.0,1.0
42.48,66.0,1.0,1.0,1.0
42.52,45.0111,1.0,1.0,1.0
42.56,80.0,1.0,1.0,1.0
42.6,55.9889,1.0,1.0,1.0
42.64,74.4944,1.0,1.0,1.0
42.68,58.4944,1.0,1.0,1.0
42.72,68.9889,1.0,1.0,1.0
42.76,82.4944,1.0,1.0,1.0
42.8,71.5167,1.0,1.0,1.0
42.84,46.0,1.0,1.0,1.0
42.88,58.0111,1.0,1.0,1.0
42.92,65.0111,1.0,1.0,1.0
42.96,71.5167,1.0,1.0,1.0
43.0,63.0,1.0,1.0,1.0
43.04,67.9889,1.0,1.0,1.0
43.08,62.0,1.0,1.0,1.0
43.12,50.0,1.0,1.0,1.0
43.16,77.9889,1.0,1.0,1.0
43.2,68.4944,1.0,1.0,1.0
43.24,73.4833,1.0,1.0,1.0
43.28,64.4944,1.0,1.0,1.0
43.32,68.0,1.0,1.0,1.0
43.36,69.9889,1.0,1.0,1.0
43.4,60.4944,1.0,1.0,1.0
43.44,58.4833,1.0,1.0,1.0
43.48,47.0,1.0,1.0,1.0
43.52,58.0111,1.0,1.0,1.0
43.56,60.0,1.0,1.0,1.0
43.6,83.4944,1.0,1.0,1.0
43.64,75.0111,1.0,1.0,1.0
43.68,77.4944,1.0,1.0,1.0
43.72,84.0111,1.0,1.0,1.0
43.76,114.0,1.0,1.0,1.0
43.8,55.4833,1.0,1.0,1.0
43.84,78.5167,1.0,1.0,1.0
43.88,72.5056,1.0,1.0,1.0
43.92,77.4833,1.0,1.0,1.0
43.96,59.0,1.0,1.0,1.0
44.0,93.5056,1.0,1.0,1.0
44.04,89.0111,1.0,1.0,1.0
44.08,84.0,1.0,1.0,1.0
44.12,84.4833,1.0,1.0,1.0
44.16,75.5056,1.0,1.0,1.0
44.2,67.4833,1.0,1.0,1.0
44.24,76.9889,1.0,1.0,1.0
44.28,64.0,1.0,1.0,1.0
44.32,72.4833,1.0,1.0,1.0
44.36,46.0111,1.0,1.0,1.0
44.4,66.0,1.0,1.0,1.0
44.44,78.4944,1.0,1.0,1.0
44.48,63.0,1.0,1.0,1.0
44.52,74.0111,1.0,1.0,1.0
44.56,55.0222,1.0,1.0,1.0
44.6,101.4833,1.0,1.0,1.0
44.64,93.4944,1.0,1.0,1.0
44.68,74.4944,1.0,1.0,1.0
44.72,98.5056,1.0,1.0,1.0
44.76,117.0111,1.0,1.0,1.0
44.8,102.9889,1.0,1.0,1.0
44.84,102.4944,1.0,1.0,1.0
44.88,144.4944,1.0,1.0,1.0
44.92,134.0,1.0,1.0,1.0
44.96,129.5056,1.0,1.0,1.0
45.0,172.0,1.0,1.0,1.0
45.04,179.0,1.0,1.0,1.0
45.08,228.4944,1.0,1.0,1.0
45.12,270.0,1.0,1.0,1.0
45.16,251.4944,1.0,1.0,1.0
45.2,282.4944,1.0,1.0,1.0
45.24,302.4833,1.0,1.0,1.0
45.28,326.4611,1.0,1.0,1.0
45.32,379.9889,1.0,1.0,1.0
45.36,377.9889,1.0,1.0,1.0
45.4,398.4833,1.0,1.0,1.0
45.44,428.5056,1.0,1.0,1.0
45.48,464.4389,1.0,1.0,1.0
45.52,516.9556,1.0,1.0,1.0
45.56,531.0333,1.0,1.0,1.0
45.6,528.9778,1.0,1.0,1.0
45.64,558.9889,1.0,1.0,1.0
45.68,675.4944,1.0,1.0,1.0
45.72,607.0667,1.0,1.0,1.0
45.76,627.9667,1.0,1.0,1.0
45.8,639.5167,1.0,1.0,1.0
45.84,667.5278,1.0,1.0,1.0
45.88,699.0444,1.0,1.0,1.0
45.92,695.9889,1.0,1.0,1.0
45.96,739.9667,1.0,1.0,1.0
46.0,710.0222,1.0,1.0,1.0
46.04,765.55,1.0,1.0,1.0
46.08,771.0,1.0,1.0,1.0
46.12,692.0,1.0,1.0,1.0
46.16,798.5278,1.0,1.0,1.0
46.2,762.9556,1.0,1.0,1.0
46.24,765.4722,1.0,1.0,1.0
46.28,739.0778,1.0,1.0,1.0
46.32,743.4389,1.0,1.0,1.0
46.36,725.55,1.0,1.0,1.0
46.4,751.5056,1.0,1.0,1.0
46.44,786.5056,1.0,1.0,1.0
46.48,634.5611,1.0,1.0,1.0
46.52,669.0,1.0,1.0,1.0
46.56,590.9889,1.0,1.0,1.0
46.6,522.0222,1.0,1.0,1.0
46.64,510.0,1.0,1.0,1.0
46.68,451.9889,1.0,1.0,1.0
46.72,422.4611,1.0,1.0,1.0
46.76,419.4944,1.0,1.0,1.0
46.8,397.5056,1.0,1.0,1.0
46.84,332.9889,1.0,1.0,1.0
46.88,295.4833,1.0,1.0,1.0
46.92,279.9556,1.0,1.0,1.0
46.96,252.0111,1.0,1.0,1.0
47.0,241.9889,1.0,1.0,1.0
47.04,195.5056,1.0,1.0,1.0
47.08,165.9889,1.0,1.0,1.0
47.12,199.0111,1.0,1.0,1.0
47.16,175.5056,1.0,1.0,1.0
47.2,193.0111,1.0,1.0,1.0
47.24,179.4944,1.0,1.0,1.0
47.28,206.0,1.0,1.0,1.0
47.32,161.0222,1.0,1.0,1.0
47.36,153.0,1.0,1.0,1.0
47.4,156.0111,1.0,1.0,1.0
47.44,132.4944,1.0,1.0,1.0
47.48,172.5056,1.0,1.0,1.0
47.52,201.0111,1.0,1.0,1.0
47.56,215.0,1.0,1.0,1.0
47.6,236.9889,1.0,1.0,1.0
47.64,267.4944,1.0,1.0,1.0
47.68,314.4944,1.0,1.0,1.0
47.72,318.9778,1.0,1.0,1.0
47.76,380.0555,1.0,1.0,1.0
47.8,399.0,1.0,1.0,1.0
47.84,427.5278,1.0,1.0,1.0
47.88,492.9778,1.0,1.0,1.0
47.92,649.4722,1.0,1.0,1.0
47.96,700.9445,1.0,1.0,1.0
48.0,787.45,1.0,1.0,1.0
48.04,933.0778,1.0,1.0,1.0
48.08,1132.55,1.0,1.0,1.0
48.12,1425.0,1.0,1.0,1.0
48.16,1726.92,1.0,1.0,1.0
48.2,2273.49,1.0,1.0,1.0
48.24,2962.36,1.0,1.0,1.0
48.28,4348.91,1.0,1.0,1.0
48.32,6763.82,1.0,1.0,1.0
48.36,13526.917,1.0,1.0,1.0
48.4,50360.2,1.0,1.0,1.0
48.44,121905,1.0,1.0,1.0
48.48,2033821.875,1.0,1.0,1.0
48.52,14667935.0,1.0,1.0,1.0
48.56,546846,1.0,1.0,1.0
48.6,72626.8,1.0,1.0,1.0
48.64,18239.4,1.0,1.0,1.0
48.68,8127.54,1.0,1.0,1.0
48.72,4634.54,1.0,1.0,1.0
48.76,3092.99,1.0,1.0,1.0
48.8,2105.12,1.0,1.0,1.0
48.84,1625.03,1.0,1.0,1.0
48.88,1195.56,1.0,1.0,1.0
48.92,868.0333,1.0,1.0,1.0
48.96,625.9889,1.0,1.0,1.0
49.0,522.4833,1.0,1.0,1.0
49.04,452.4611,1.0,1.0,1.0
49.08,378.5056,1.0,1.0,1.0
49.12,313.9667,1.0,1.0,1.0
49.16,269.0,1.0,1.0,1.0
49.2,225.4944,1.0,1.0,1.0
49.24,191.9667,1.0,1.0,1.0
49.28,193.9778,1.0,1.0,1.0
49.32,132.5056,1.0,1.0,1.0
49.36,146.4944,1.0,1.0,1.0
49.4,148.0222,1.0,1.0,1.0
49.44,100.9889,1.0,1.0,1.0
49.48,106.0,1.0,1.0,1.0
49.52,94.5056,1.0,1.0,1.0
49.56,116.9778,1.0,1.0,1.0
49.6,91.4833,1.0,1.0,1.0
49.64,91.4944,1.0,1.0,1.0
49.68,112.0,1.0,1.0,1.0
49.72,101.4944,1.0,1.0,1.0
49.76,134.9667,1.0,1.0,1.0
49.8,120.0111,1.0,1.0,1.0
49.84,89.5056,1.0,1.0,1.0
49.88,91.5056,1.0,1.0,1.0
49.92,65.5056,1.0,1.0,1.0
49.96,62.0222,1.0,1.0,1.0
50.0,83.0,1.0,1.0,1.0
50.04,92.5056,1.0,1.0,1.0
50.08,86.4833,1.0,1.0,1.0
50.12,69.4944,1.0,1.0,1.0
50.16,90.0,1.0,1.0,1.0
50.2,74.5167,1.0,1.0,1.0
50.24,68.0111,1.0,1.0,1.0
50.28,73.0,1.0,1.0,1.0
50.32,62.5056,1.0,1.0,1.0
50.36,73.5056,1.0,1.0,1.0
50.4,58.5167,1.0,1.0,1.0
50.44,61.0,1.0,1.0,1.0
50.48,61.5056,1.0,1.0,1.0
50.52,60.4944,1.0,1.0,1.0
50.56,48.0,1.0,1.0,1.0
50.6,61.5056,1.0,1.0,1.0
50.64,60.9889,1.0,1.0,1.0
50.68,45.5056,1.0,1.0,1.0
50.72,43.5056,1.0,1.0,1.0
50.76,70.0111,1.0,1.0,1.0
50.8,57.0,1.0,1.0,1.0
50.84,52.5167,1.0,1.0,1.0
50.88,40.4944,1.0,1.0,1.0
50.92,61.4944,1.0,1.0,1.0
50.96,54.5056,1.0,1.0,1.0
51.0,58.5056,1.0,1.0,1.0
51.04,37.5056,1.0,1.0,1.0
51.08,45.9889,1.0,1.0,1.0
51.12,53.0,1.0,1.0,1.0
51.16,44.4944,1.0,1.0,1.0
51.2,49.0,1.0,1.0,1.0
51.24,60.4944,1.0,1.0,1.0
51.28,51.0,1.0,1.0,1.0
51.32,67.5056,1.0,1.0,1.0
51.36,56.5056,1.0,1.0,1.0
51.4,47.5056,1.0,1.0,1.0
51.44,59.4944,1.0,1.0,1.0
51.48,58.4944,1.0,1.0,1.0
51.52,59.9889,1.0,1.0,1.0
51.56,71.4944,1.0,1.0,1.0
51.6,48.9889,1.0,1.0,1.0
51.64,46.4944,1.0,1.0,1.0
51.68,53.4944,1.0,1.0,1.0
51.72,54.0,1.0,1.0,1.0
51.76,39.4833,1.0,1.0,1.0
51.8,51.5056,1.0,1.0,1.0
51.84,56.5056,1.0,1.0,1.0
51.88,52.0,1.0,1.0,1.0
51.92,61.4833,1.0,1.0,1.0
51.96,40.9889,1.0,1.0,1.0
52.0,53.4944,1.0,1.0,1.0