Folder: Analysis/XRD:XRR/STO/22074_STOD

File: 22074_STOD_XRD.csv
#twotheta, yobs, ycal, bkg, diff
42.0,174.0,1.0,1.0,1.0
42.04,161.4833,1.0,1.0,1.0
42.08,186.9889,1.0,1.0,1.0
42.12,183.4944,1.0,1.0,1.0
42.16,163.0,1.0,1.0,1.0
42.2,167.0111,1.0,1.0,1.0
42.24,168.4833,1.0,1.0,1.0
42.28,151.4833,1.0,1.0,1.0
42.32,164.4944,1.0,1.0,1.0
42.36,165.0,1.0,1.0,1.0
42.4,174.5167,1.0,1.0,1.0
42.44,165.0333,1.0,1.0,1.0
42.48,197.4833,1.0,1.0,1.0
42.52,155.0,1.0,1.0,1.0
42.56,172.0222,1.0,1.0,1.0
42.6,133.4944,1.0,1.0,1.0
42.64,174.9889,1.0,1.0,1.0
42.68,161.0333,1.0,1.0,1.0
42.72,159.9778,1.0,1.0,1.0
42.76,167.5056,1.0,1.0,1.0
42.8,185.45,1.0,1.0,1.0
42.84,158.4944,1.0,1.0,1.0
42.88,198.0111,1.0,1.0,1.0
42.92,213.0333,1.0,1.0,1.0
42.96,200.9889,1.0,1.0,1.0
43.0,216.5167,1.0,1.0,1.0
43.04,195.0222,1.0,1.0,1.0
43.08,190.5056,1.0,1.0,1.0
43.12,179.0,1.0,1.0,1.0
43.16,255.4944,1.0,1.0,1.0
43.2,227.4833,1.0,1.0,1.0
43.24,189.5056,1.0,1.0,1.0
43.28,181.4944,1.0,1.0,1.0
43.32,201.0,1.0,1.0,1.0
43.36,154.0111,1.0,1.0,1.0
43.4,199.9778,1.0,1.0,1.0
43.44,156.4833,1.0,1.0,1.0
43.48,167.5056,1.0,1.0,1.0
43.52,148.5056,1.0,1.0,1.0
43.56,208.5056,1.0,1.0,1.0
43.6,183.4944,1.0,1.0,1.0
43.64,178.4944,1.0,1.0,1.0
43.68,185.4944,1.0,1.0,1.0
43.72,233.9889,1.0,1.0,1.0
43.76,239.5056,1.0,1.0,1.0
43.8,246.4833,1.0,1.0,1.0
43.84,244.4833,1.0,1.0,1.0
43.88,321.5056,1.0,1.0,1.0
43.92,228.5056,1.0,1.0,1.0
43.96,284.4944,1.0,1.0,1.0
44.0,293.4722,1.0,1.0,1.0
44.04,269.4944,1.0,1.0,1.0
44.08,268.4944,1.0,1.0,1.0
44.12,275.4833,1.0,1.0,1.0
44.16,247.5056,1.0,1.0,1.0
44.2,238.4944,1.0,1.0,1.0
44.24,209.4944,1.0,1.0,1.0
44.28,201.4944,1.0,1.0,1.0
44.32,188.0111,1.0,1.0,1.0
44.36,205.4722,1.0,1.0,1.0
44.4,151.0,1.0,1.0,1.0
44.44,196.9889,1.0,1.0,1.0
44.48,189.0,1.0,1.0,1.0
44.52,223.0222,1.0,1.0,1.0
44.56,255.4944,1.0,1.0,1.0
44.6,255.5167,1.0,1.0,1.0
44.64,338.0222,1.0,1.0,1.0
44.68,350.5167,1.0,1.0,1.0
44.72,375.0333,1.0,1.0,1.0
44.76,454.9667,1.0,1.0,1.0
44.8,420.5056,1.0,1.0,1.0
44.84,521.5167,1.0,1.0,1.0
44.88,520.4833,1.0,1.0,1.0
44.92,490.55,1.0,1.0,1.0
44.96,491.9778,1.0,1.0,1.0
45.0,453.4944,1.0,1.0,1.0
45.04,438.9778,1.0,1.0,1.0
45.08,396.0,1.0,1.0,1.0
45.12,290.9889,1.0,1.0,1.0
45.16,295.0222,1.0,1.0,1.0
45.2,238.5056,1.0,1.0,1.0
45.24,218.5167,1.0,1.0,1.0
45.28,221.0333,1.0,1.0,1.0
45.32,224.0,1.0,1.0,1.0
45.36,319.0222,1.0,1.0,1.0
45.4,400.4833,1.0,1.0,1.0
45.44,589.9667,1.0,1.0,1.0
45.48,722.4722,1.0,1.0,1.0
45.52,1059.91,1.0,1.0,1.0
45.56,1480.01,1.0,1.0,1.0
45.6,1946.06,1.0,1.0,1.0
45.64,2376.96,1.0,1.0,1.0
45.68,2902.62,1.0,1.0,1.0
45.72,3565.97,1.0,1.0,1.0
45.76,4311.61,1.0,1.0,1.0
45.8,5295.94,1.0,1.0,1.0
45.84,6614.439,1.0,1.0,1.0
45.88,8590.44,1.0,1.0,1.0
45.92,12686.4,1.0,1.0,1.0
45.96,23108.6,1.0,1.0,1.0
46.0,60876.4,1.0,1.0,1.0
46.04,278047,1.0,1.0,1.0
46.08,89441816.0,1.0,1.0,1.0
46.12,539590,1.0,1.0,1.0
46.16,151267,1.0,1.0,1.0
46.2,83952.2,1.0,1.0,1.0
46.24,61612.4,1.0,1.0,1.0
46.28,49947.4,1.0,1.0,1.0
46.32,43825.1,1.0,1.0,1.0
46.36,38952.3,1.0,1.0,1.0
46.4,35758.4,1.0,1.0,1.0
46.44,33346,1.0,1.0,1.0
46.48,31260.9,1.0,1.0,1.0
46.52,29180.7,1.0,1.0,1.0
46.56,26919.5,1.0,1.0,1.0
46.6,25301.9,1.0,1.0,1.0
46.64,23201,1.0,1.0,1.0
46.68,21353.3,1.0,1.0,1.0
46.72,19551,1.0,1.0,1.0
46.76,17547.2,1.0,1.0,1.0
46.8,15869.7,1.0,1.0,1.0
46.84,14397.5,1.0,1.0,1.0
46.88,12474.5,1.0,1.0,1.0
46.92,11026.5,1.0,1.0,1.0
46.96,9585.0,1.0,1.0,1.0
47.0,8340.37,1.0,1.0,1.0
47.04,6963.189,1.0,1.0,1.0
47.08,5703.12,1.0,1.0,1.0
47.12,4886.54,1.0,1.0,1.0
47.16,3965.0,1.0,1.0,1.0
47.2,3127.55,1.0,1.0,1.0
47.24,2436.49,1.0,1.0,1.0
47.28,1913.02,1.0,1.0,1.0
47.32,1451.14,1.0,1.0,1.0
47.36,1067.98,1.0,1.0,1.0
47.4,816.0333,1.0,1.0,1.0
47.44,560.5056,1.0,1.0,1.0
47.48,432.4944,1.0,1.0,1.0
47.52,298.4944,1.0,1.0,1.0
47.56,235.5389,1.0,1.0,1.0
47.6,200.0,1.0,1.0,1.0
47.64,210.0222,1.0,1.0,1.0
47.68,271.0,1.0,1.0,1.0
47.72,249.0,1.0,1.0,1.0
47.76,304.5611,1.0,1.0,1.0
47.8,305.4722,1.0,1.0,1.0
47.84,364.5056,1.0,1.0,1.0
47.88,371.9889,1.0,1.0,1.0
47.92,362.9667,1.0,1.0,1.0
47.96,404.0222,1.0,1.0,1.0
48.0,394.9778,1.0,1.0,1.0
48.04,404.5056,1.0,1.0,1.0
48.08,370.0,1.0,1.0,1.0
48.12,295.0,1.0,1.0,1.0
48.16,316.9778,1.0,1.0,1.0
48.2,333.0333,1.0,1.0,1.0
48.24,287.9889,1.0,1.0,1.0
48.28,249.45,1.0,1.0,1.0
48.32,216.4944,1.0,1.0,1.0
48.36,218.0111,1.0,1.0,1.0
48.4,211.0111,1.0,1.0,1.0
48.44,184.0111,1.0,1.0,1.0
48.48,166.5056,1.0,1.0,1.0
48.52,175.0,1.0,1.0,1.0
48.56,142.4944,1.0,1.0,1.0
48.6,137.9889,1.0,1.0,1.0
48.64,146.9778,1.0,1.0,1.0
48.68,148.0111,1.0,1.0,1.0
48.72,175.5167,1.0,1.0,1.0
48.76,186.9778,1.0,1.0,1.0
48.8,165.5056,1.0,1.0,1.0
48.84,220.4944,1.0,1.0,1.0
48.88,187.0,1.0,1.0,1.0
48.92,185.9889,1.0,1.0,1.0
48.96,201.4833,1.0,1.0,1.0
49.0,188.5167,1.0,1.0,1.0
49.04,177.4944,1.0,1.0,1.0
49.08,185.0,1.0,1.0,1.0
49.12,181.5278,1.0,1.0,1.0
49.16,156.4833,1.0,1.0,1.0
49.2,174.4944,1.0,1.0,1.0
49.24,143.4944,1.0,1.0,1.0
49.28,172.4611,1.0,1.0,1.0
49.32,180.5278,1.0,1.0,1.0
49.36,156.4833,1.0,1.0,1.0
49.4,169.5056,1.0,1.0,1.0
49.44,149.0,1.0,1.0,1.0
49.48,119.0,1.0,1.0,1.0
49.52,149.0,1.0,1.0,1.0
49.56,150.9889,1.0,1.0,1.0
49.6,170.0333,1.0,1.0,1.0
49.64,155.4944,1.0,1.0,1.0
49.68,168.5056,1.0,1.0,1.0
49.72,133.0111,1.0,1.0,1.0
49.76,151.4944,1.0,1.0,1.0
49.8,177.4944,1.0,1.0,1.0
49.84,131.4944,1.0,1.0,1.0
49.88,150.0222,1.0,1.0,1.0
49.92,152.4944,1.0,1.0,1.0
49.96,180.5056,1.0,1.0,1.0
50.0,135.0222,1.0,1.0,1.0
50.04,143.5056,1.0,1.0,1.0
50.08,148.9889,1.0,1.0,1.0
50.12,146.4944,1.0,1.0,1.0
50.16,131.0,1.0,1.0,1.0
50.2,130.4833,1.0,1.0,1.0
50.24,139.4944,1.0,1.0,1.0
50.28,156.5056,1.0,1.0,1.0
50.32,181.4944,1.0,1.0,1.0
50.36,143.0,1.0,1.0,1.0
50.4,148.4944,1.0,1.0,1.0
50.44,129.5056,1.0,1.0,1.0
50.48,124.0,1.0,1.0,1.0
50.52,130.5056,1.0,1.0,1.0
50.56,170.0111,1.0,1.0,1.0
50.6,109.5056,1.0,1.0,1.0
50.64,137.9778,1.0,1.0,1.0
50.68,134.0,1.0,1.0,1.0
50.72,135.0,1.0,1.0,1.0
50.76,123.4944,1.0,1.0,1.0
50.8,128.5167,1.0,1.0,1.0
50.84,143.9889,1.0,1.0,1.0
50.88,169.9889,1.0,1.0,1.0
50.92,148.4944,1.0,1.0,1.0
50.96,139.0111,1.0,1.0,1.0
51.0,147.4833,1.0,1.0,1.0
51.04,146.5056,1.0,1.0,1.0
51.08,135.0,1.0,1.0,1.0
51.12,144.5167,1.0,1.0,1.0
51.16,143.0111,1.0,1.0,1.0
51.2,147.9889,1.0,1.0,1.0
51.24,137.5056,1.0,1.0,1.0
51.28,121.0222,1.0,1.0,1.0
51.32,158.4944,1.0,1.0,1.0
51.36,135.0222,1.0,1.0,1.0
51.4,163.4944,1.0,1.0,1.0
51.44,117.0111,1.0,1.0,1.0
51.48,142.0111,1.0,1.0,1.0
51.52,162.0111,1.0,1.0,1.0
51.56,138.4944,1.0,1.0,1.0
51.6,143.5056,1.0,1.0,1.0
51.64,145.9889,1.0,1.0,1.0
51.68,149.4944,1.0,1.0,1.0
51.72,135.4944,1.0,1.0,1.0
51.76,170.0111,1.0,1.0,1.0
51.8,134.9778,1.0,1.0,1.0
51.84,160.5056,1.0,1.0,1.0
51.88,133.4944,1.0,1.0,1.0
51.92,152.0,1.0,1.0,1.0
51.96,157.9889,1.0,1.0,1.0
52.0,139.5056,1.0,1.0,1.0