Folder: Analysis/XRD:XRR/STO/22099_STOL (part 2)

File: 22099_STOL_XRD_2-Theta_Omega.asc
*TYPE		=  Raw
*CLASS		=  ASCII CLASS
*SAMPLE		=
*COMMENT	=
*FNAME		=  22098_STOL_XRD_2-Theta_Omega.asc
*DATE		=  22-Jun-22 17:09

*GROUP_COUNT	=  1
*GONIO		=  SmartLab(In-plane), 0.000000
*ATTACHMENT	=  Z-Phi Stage
*ASC		=  0, 0, 0.000000, 0.000000
*I_MONOCHRO	=  Ge(220)x2, 0.000000
*FILTER		=  None
*C_MONOCHRO	=  None, 0.000000
*SLIT_NAME	=  0, Incident slit
*SLIT_NAME	=  1, Receiving slit # 1
*SLIT_NAME	=  2, Receiving slit # 2
*COUNTER	=  D/teX Ultra 250, 0
*POS_FORMAT	=  0
*SCAN_AXIS	=  2Theta/Omega
*MEAS_MODE	=  Continuous Scanning
*TARGET		=  29
*XRAY_CHAR	=  K-ALPHA1
*WAVE_LENGTH1	=  1.54059
*WAVE_LENGTH2	=  1.54441
*THICKNESS	=  0, 0.000000
*MU		=  0, 0.000000
*SCAN_MODE	=  2Theta/Omega
*SPEED_DIM	=  sec./step
*XUNIT		=  deg.
*YUNIT		=  counts
*SCALE_MODE	=  1
*REP_COUNT	=  0
*SE_COUNT	=  0
*STD_MATERIAL	=  Unknown, Unknown, 0.000000, 0.000000, 0.000000, 0.000000, 0.000000, 0.000000
*LATT_CONS	=  0, Unknown, Unknown, 0.000000, 0.000000, 0.000000, 0.000000, 0.000000, 0.000000
*SEC_COUNT	=  1
*TSPEC_SIZE	=  0
*EXTRA_SIZE	=  0
*MEMO		=

*BEGIN
*GROUP		=  0
*START		=  42
*STOP		=  52
*STEP		=  0.01
*OFFSET		=  -0.028000
*SPEED		=  20.6484
*SLIT_SPEC	=  0, 0.400mm, 0.4, 0.000000
*SLIT_SPEC	=  1, 0.400mm, 0.4, 0.000000
*SLIT_SPEC	=  2, 0.400mm, 0.4, 0.000000
*KV		=  40
*MA		=  30
*LOW		=  0.000000
*HIGH		=  0.000000
*CTEMPER	=  0, 0.000000
*CTEMPER	=  1, 0.000000
*CTEMPER	=  2, 0.000000
*PAREX		=  0, 0.000000
*PAREX		=  1, 0.000000
*PAREX		=  2, 0.000000
*PAREX		=  3, 0.000000
*PAREX		=  4, 0.000000
*PAREX		=  5, 0.000000
*PAREX		=  6, 0.000000
*PAREX		=  7, 0.000000
*PAREX		=  8, 0.000000
*PAREX		=  9, 0.000000
*PAREX		=  10, 0.000000
*PAREX		=  11, 0.000000
*PAREX		=  12, 0.000000
*PAREX		=  13, 0.000000
*PAREX		=  14, 0.000000
*PAREX		=  15, 0.000000
*FULL_SCALE	=  308195
*INDEX		=  0, 0, 0
*COUNT		=  1001
5, 4.49445, 9.50555, 11
2, 9, 0.000000, 0.000000
5, 2, 3, 8
0.000000, 0.000000, 1, 6
0.000000, 7, 0.000000, 10
4, 0.000000, 0.000000, 6
5, 2, 5, 0.000000
3, 0.000000, 5.49445, 0.505554
2, 0.000000, 0.000000, 2
2, 0.000000, 1, 3
1, 3, 3, 0.000000
5, 7, 6, 6
5, 2, 9, 3
2.49445, 0.505554, 4, 3
0.000000, 3, 2, 3
5, 2, 2, 2
0.000000, 2, 2, 6
4, 2, 3, 1
3, 1.49445, 4.50555, 0.000000
2, 2, 2, 3
3, 5, 6, 5
2, 0.000000, 0.000000, 6
2, 5, 5, 3
2, 8, 5, 4
2, 0.000000, 5, 5
2, 8, 7, 1.49445
9.50555, 13, 8, 4.49445
1.50555, 4, 17.9889, 4.50555
6.50555, 4.49445, 14.5056, 12
9, 13.4944, 14.5056, 12
9, 12, 4, 9
12.9889, 20.0111, 16, 13.4944
13.5056, 13, 12, 9.98889
17.5056, 17.5056, 14, 13
10.4833, 24.5167, 21, 16
5, 6, 12, 12.9889
9.01111, 15, 6, 6
6, 2, 17, 3.49445
7.50555, 3, 10, 4
14, 3.49445, 17.5056, 6
13, 4, 4, 4
14, 10, 6, 5
5.49445, 9.50555, 9, 7
3, 6, 3, 6
8, 2, 4, 2
10, 6, 7, 7
0.494446, 8.50555, 8, 5.98889
12.0111, 7, 2, 13
6, 2, 7, 4
6, 12, 7, 7
12.4944, 6.50555, 21, 19
14, 17, 28, 20
29, 19, 42.9889, 19.5056
20.5056, 22, 17, 37.4944
27.5056, 49.4944, 25, 51.4944
63.9889, 66.5056, 62.5167, 64
70, 72.4944, 57.5056, 91.4833
65.5056, 100.989, 99.0111, 102.989
113.494, 75.5278, 134.978, 113.506
129.506, 108.472, 149.022, 123.494
139, 120.517, 140.494, 149.494
187, 158.517, 188.978, 188.506
203.494, 185.506, 169.494, 178.483
224.517, 201.989, 252.506, 227.011
233.494, 259.483, 270, 256.989
246.022, 234.528, 250.967, 278.483
269.517, 296.978, 296.011, 293.517
292.011, 321.494, 366.011, 333.956
310.517, 339.989, 334.483, 346.022
356.022, 346.989, 358.472, 382.044
359.967, 409.506, 358.494, 405.494
356.483, 375.506, 464.022, 384.494
407.506, 401.494, 449.011, 400.967
434.033, 415.494, 442.494, 467.506
442.033, 449.944, 445.528, 444.494
473.494, 452.506, 455.022, 408.483
532.494, 459.978, 469.517, 463.978
475.55, 473.461, 529.483, 441.528
474.989, 455.506, 515.494, 476.528
481.011, 464.944, 471.55, 498
496.472, 494.494, 536.483, 492.022
524.517, 493.967, 500.528, 421.506
522.483, 444.978, 495.978, 443.539
472.483, 486, 479.033, 461.483
509.494, 468.517, 494, 427.472
424.539, 485.978, 416.022, 444.494
439.506, 438, 448.989, 456.011
421, 404.989, 410.517, 422.494
387.494, 407.506, 410.483, 403.011
452.528, 389.956, 413.517, 355.989
367.528, 377.978, 362.506, 325.022
334.978, 361.011, 340.494, 351.011
363.494, 321.506, 347.483, 303.494
312.528, 284.517, 290.978, 290
295.989, 290.011, 285.494, 310.022
265, 290.483, 296.517, 275.989
259.483, 271.506, 293.472, 269.033
268.011, 239.011, 268.483, 266.011
210.494, 265.483, 216.989, 254.033
265.494, 220, 224.472, 219.528
199, 234.494, 200.494, 216
224, 182.506, 194.506, 191
197, 235.967, 221.033, 212.494
190, 203, 191.011, 198.967
194.517, 211.011, 184.472, 166.528
162.506, 209.978, 215.517, 214
181.506, 203.494, 187.494, 198.011
195, 187.483, 206.494, 174.517
168, 144.494, 174.022, 145.472
164.494, 189.506, 171.506, 168
183.494, 147.989, 163.528, 196.483
186.517, 147.494, 154, 154.494
170.011, 176.483, 161.517, 157.989
167.978, 166.517, 196.022, 165.978
187.517, 153.989, 181.011, 149
145.989, 149.506, 156.517, 131.494
151.494, 176.989, 158.022, 139.989
157.494, 172.506, 132.506, 130.989
139, 148, 130, 170.494
130.022, 132.494, 145.472, 115
122.033, 136.978, 129, 119.022
121.494, 123.989, 151.506, 132
127.989, 128.022, 126.483, 133.506
104.494, 105.483, 125.022, 124.989
120.494, 120.011, 113.517, 115.483
112, 128.011, 115, 113.494
121.989, 110.494, 123.517, 100.494
87.5056, 109.494, 106.011, 120
127.494, 92.5056, 90.9889, 107.989
131.011, 101.011, 91, 134.989
110.011, 119.506, 106.989, 116
116, 108.011, 102.494, 129.483
132.517, 110.483, 135, 160.011
129.506, 138.483, 145, 156
147.506, 135.989, 163.011, 154.494
196.494, 196.989, 201.528, 186.978
218.506, 218, 241.022, 219.483
236.472, 260.033, 231.494, 283.989
277.517, 295, 327.483, 343.494
351, 340.506, 390.528, 385.461
403.011, 487.956, 498.483, 547.011
559.572, 598.45, 611.506, 709.461
751.022, 865.967, 896.494, 1018.48
1130.54, 1182.43, 1421.01, 1531.92
1722.49, 1992.96, 2206.54, 2520.98
3056.86, 3461.54, 4129.93, 4830.77
5912.03, 7257.24, 9477.68, 12442.2
17312.7, 26505.6, 42946.1, 76818.3
329296, 1070658.1, 1843211.4, 2727359.5
4129687, 5068378.5, 4575403, 4578037
5003862.5, 3076038.5, 1950031.5, 1463927
492648, 127637, 61629.3, 37528.3
24179.3, 16441.3, 11695.9, 8735.18
6707.81, 5295.14, 4187.06, 3499.63
2904.51, 2374.53, 2121.51, 1745.54
1516.09, 1301.52, 1149.52, 1114.47
923.044, 815.011, 722.494, 622.022
548.494, 515.044, 468, 449.978
414.517, 326.506, 357.989, 316.517
285.506, 292.989, 240, 245.494
244.517, 191.483, 191.011, 166.011
179.494, 185.506, 161, 153.978
101.528, 133.494, 125, 127.506
111, 93.9778, 83.0222, 100
110, 110.989, 123, 96
93, 99.0111, 67, 64.5056
73.9889, 51.0111, 74.9889, 51.5056
72.9889, 70.0111, 68, 66.4944
56.5056, 48, 61, 52.5056
33, 52, 37.4944, 45
41.5056, 39, 54, 47.4833
43.0111, 47.5056, 44, 39
39, 49, 43, 30.4944
29.4944, 16.0111, 21, 24
21.4944, 27, 16, 22.5056
32, 11, 27.4944, 30.5056
20, 18, 8, 18.4944
15.5056, 14, 15, 15
11.4944, 22.5056, 14, 29.4944
18, 4.50555, 13, 20
7, 12, 17, 11.9889
14.0111, 6, 11, 5
4, 13, 13, 13
6, 11, 13, 4
6, 4, 18.4944, 6.50555
5, 8, 8, 2.49445
7.50555, 6, 10.4944, 9
5.50555, 12, 7, 14.4944
20.5056, 8.49445, 2.50555, 11
6, 10, 10.4944, 4.50555
9, 10, 10.4944, 6.50555
9, 7, 8, 12
10, 8, 4, 3.49445
7.50555, 2, 0.000000, 3
5, 4, 4, 6
3, 8, 3, 5
2, 2.49445, 6.50555, 4
2, 2, 8, 10.4944
2.50555, 5, 5.49445, 1.50555
2, 2, 4, 5
2.49445, 4, 3.50555, 8
2, 0.000000, 5, 6
9, 5, 3, 3
7, 0.000000, 10, 3.49445
0.505554, 14, 11, 0.000000
4, 3, 4, 3.98889
5.01111, 5, 0.000000, 7
0.000000, 3, 6, 4.98889
1.01111, 3, 2, 4
4, 0.000000, 7, 0.000000
5, 4, 6, 0.000000
0.000000, 0.000000, 3, 2
2, 5, 10, 0.000000
2, 4, 7.49445, 4.50555
0.000000, 2, 5, 4
2, 0.000000, 0.000000, 4
0.000000, 2, 0.000000, 7
5, 2, 0.000000, 2
2, 4, 0.000000, 0.000000
0.000000, 8, 0.000000, 3
3, 0.000000, 0.000000, 0.000000
2, 5.49445, 0.505554, 4
8, 0.000000, 3, 4
0.000000, 5, 0.000000, 2
0.000000, 7, 4, 4
3, 5, 3, 4
6, 2, 3, 9
2, 8, 0.000000, 4
0.000000, 2, 0.000000, 0.000000
5, 6, 4, 0.000000
0.000000, 0.000000, 0.000000, 2
2, 4, 0.000000, 2
0.000000, 0.000000, 0.000000, 2
0.000000, 4, 2, 0.000000
2, 2, 0.000000, 1
2, 0.000000, 1.49445, 3.50555
3, 4, 0.000000, 2
0.000000, 0.000000, 0.000000, 0.000000
0.000000, 5, 0.000000, 2
3.49445, 0.505554, 0.000000, 0.000000
6, 3, 6, 2
4, 0.000000, 0.000000, 0.000000
2, 1, 2, 0.000000
0.000000, 4, 0.000000, 0.000000
3, 0.000000, 7, 2
3, 2, 0.000000, 1
0.000000, 4, 2, 0.000000
5, 3, 0.000000, 0.000000
6, 5, 0.000000, 3
2, 0.000000, 0.000000, 2
2
*END

*EOF