Folder: Analysis/XRD:XRR/STO/22099_STOL

File: 22098_STOL_XRR_2-Theta_Omega.asc
*TYPE		=  Raw
*CLASS		=  ASCII CLASS
*SAMPLE		=
*COMMENT	=
*FNAME		=  22098_STOL_XRR_2-Theta_Omega.asc
*DATE		=  22-Jun-22 10:45

*GROUP_COUNT	=  1
*GONIO		=  SmartLab(In-plane), 0.000000
*ATTACHMENT	=  Z-Phi Stage
*ASC		=  0, 0, 0.000000, 0.000000
*I_MONOCHRO	=  Ge(220)x2, 0.000000
*FILTER		=  None
*C_MONOCHRO	=  None, 0.000000
*SLIT_NAME	=  0, Incident slit
*SLIT_NAME	=  1, Receiving slit # 1
*SLIT_NAME	=  2, Receiving slit # 2
*COUNTER	=  D/teX Ultra 250, 0
*POS_FORMAT	=  0
*SCAN_AXIS	=  2Theta/Omega
*MEAS_MODE	=  Continuous Scanning
*TARGET		=  29
*XRAY_CHAR	=  K-ALPHA1
*WAVE_LENGTH1	=  1.54059
*WAVE_LENGTH2	=  1.54441
*THICKNESS	=  0, 0.000000
*MU		=  0, 0.000000
*SCAN_MODE	=  2Theta/Omega
*SPEED_DIM	=  sec./step
*XUNIT		=  deg.
*YUNIT		=  counts
*SCALE_MODE	=  1
*REP_COUNT	=  0
*SE_COUNT	=  0
*STD_MATERIAL	=  Unknown, Unknown, 0.000000, 0.000000, 0.000000, 0.000000, 0.000000, 0.000000
*LATT_CONS	=  0, Unknown, Unknown, 0.000000, 0.000000, 0.000000, 0.000000, 0.000000, 0.000000
*SEC_COUNT	=  1
*TSPEC_SIZE	=  0
*EXTRA_SIZE	=  0
*MEMO		=

*BEGIN
*GROUP		=  0
*START		=  0.4
*STOP		=  4.5
*STEP		=  0.01
*OFFSET		=  0.0244
*SPEED		=  5.95853
*SLIT_SPEC	=  0, 1.000mm, 1, 0.000000
*SLIT_SPEC	=  1, 1.000mm, 1, 0.000000
*SLIT_SPEC	=  2, 1.000mm, 1, 0.000000
*KV		=  40
*MA		=  30
*LOW		=  0.000000
*HIGH		=  0.000000
*CTEMPER	=  0, 0.000000
*CTEMPER	=  1, 0.000000
*CTEMPER	=  2, 0.000000
*PAREX		=  0, 0.000000
*PAREX		=  1, 0.000000
*PAREX		=  2, 0.000000
*PAREX		=  3, 0.000000
*PAREX		=  4, 0.000000
*PAREX		=  5, 0.000000
*PAREX		=  6, 0.000000
*PAREX		=  7, 0.000000
*PAREX		=  8, 0.000000
*PAREX		=  9, 0.000000
*PAREX		=  10, 0.000000
*PAREX		=  11, 0.000000
*PAREX		=  12, 0.000000
*PAREX		=  13, 0.000000
*PAREX		=  14, 0.000000
*PAREX		=  15, 0.000000
*FULL_SCALE	=  109577
*INDEX		=  0, 0, 0
*COUNT		=  411
437821, 446253, 454839, 464274
471289, 478766, 486091, 494373
501602, 508691, 514476, 519325
524807, 527930, 528852, 532355
532132, 528837, 524327, 517841
504228, 488049, 470168, 447455
422833, 397234, 369893, 343244
315450, 287440, 260676, 234712
208718, 183978, 159733, 137132
116330, 96200.5, 78684.5, 63836.5
52064, 41934, 34417, 28599.5
24656.5, 21319.5, 18926, 16964
15760, 14619.5, 13953, 13353.5
12816.5, 12532, 12514.5, 12351.5
12298, 12238.5, 12134, 12247
12113, 12427.5, 12317.5, 12022.5
12037, 12295, 11981, 11783
11971.5, 11933.5, 11523.5, 11780.5
11434, 11299, 11289, 11072.5
10935.5, 10710, 10516.5, 10374.5
10158, 9758, 9699, 9486.5
9142, 8870, 8549.5, 8430
8261.5, 7841.5, 7562.5, 7306
6969, 6814.5, 6623, 6469.5
5951.5, 5751, 5585.5, 5416
5154, 4836, 4753, 4518
4170, 3996, 3774, 3745.5
3487, 3349.5, 3122, 2888
2835, 2554.5, 2462, 2311.5
2140, 2047.5, 1972.5, 1796.5
1736, 1545.5, 1528, 1445.5
1302.5, 1246.5, 1176, 1121.5
1073, 1012, 952, 906.5
885.5, 839.5, 834, 794.5
842.5, 745, 711.001, 684
655.5, 663, 705.5, 693.5
648.5, 663.501, 658, 708.5
651.001, 694, 694.5, 687
665, 659.5, 678.5, 709.5
677.5, 732.5, 754.5, 725.5
729.999, 740.5, 812, 815.5
799, 883, 809.499, 789.5
782, 765.5, 796, 840
849, 783.001, 861.5, 854.5
809.5, 826, 785, 811.001
837, 814.5, 789.5, 781.5
823, 808, 778.5, 690
798.5, 782.5, 758.5, 725.5
723, 693, 656, 663.999
701.5, 634, 638, 619
596.5, 598.5, 554.5, 582
583.5, 558, 438, 482
470.5, 441.5, 433, 394.5
426.5, 376, 395, 330.5
320, 331.5, 338.5, 313
299.5, 302, 280.5, 225
250.5, 245.5, 237, 216
192.5, 213, 191, 179
184, 150, 187.5, 187.5
160, 167, 155.5, 149.5
148, 127.5, 142, 98
112, 127, 138.5, 81.5001
148.5, 118, 118, 114.5
120.5, 112, 122.5, 130.5
162, 136, 132, 112.5
130, 134.5, 150.5, 140.5
141.5, 142.5, 134, 126
141, 146.5, 141, 145
188, 163, 150.5, 138
187, 157.5, 142.5, 160.5
164, 189.5, 197, 170.5
201.5, 175, 185, 186
190.5, 212.5, 191.5, 194.5
179, 184, 206.5, 183.5
182.5, 190.5, 215.5, 193.5
185, 188.5, 150, 181
194, 164.5, 164, 200
168, 168.5, 163.5, 159.5
131, 137.5, 126.5, 176
140.5, 134.5, 134, 148.5
145.5, 133, 131.5, 151.5
111, 117, 101.5, 99.0001
142, 125, 114.5, 108
88, 116, 62.0002, 86
83.9999, 87.9999, 90.4999, 107.5
88.0001, 86.9999, 79, 80.0001
82.9999, 73.4999, 83.0001, 94.5001
58.9999, 80.5001, 59, 64
89, 68.5001, 79, 55.4998
57.0001, 47, 45.5001, 74
57, 84.4999, 74, 80
54.5001, 65.9999, 48.5001, 57.9999
96, 66, 76.0001, 38.4999
74, 74, 59.4999, 73.5002
69.4999, 59.5001, 55.4998, 62.0001
78, 67, 96, 78.4999
70, 73.5001, 85.9999, 96
106, 77, 78.4998, 81.5001
90.5002, 62, 93.9999, 86.0001
85.9999, 92.9999, 96.0001, 99.4999
94, 98.5001, 100.5, 86.0001
96.4999, 99, 98, 97
91, 84.0001, 76.9999
*END

*EOF

File: 22099_STOL_annealed_XRD.csv
#twotheta, yobs, ycal, bkg, diff
42.0,0.0,1.0,1.0,1.0
42.04,7.0,1.0,1.0,1.0
42.08,3.4944,1.0,1.0,1.0
42.12,2.0,1.0,1.0,1.0
42.16,4.0,1.0,1.0,1.0
42.2,0.0,1.0,1.0,1.0
42.24,5.0,1.0,1.0,1.0
42.28,2.0,1.0,1.0,1.0
42.32,2.0,1.0,1.0,1.0
42.36,2.0,1.0,1.0,1.0
42.4,0.0,1.0,1.0,1.0
42.44,2.0,1.0,1.0,1.0
42.48,4.0,1.0,1.0,1.0
42.52,2.0,1.0,1.0,1.0
42.56,2.0,1.0,1.0,1.0
42.6,0.0,1.0,1.0,1.0
42.64,0.0,1.0,1.0,1.0
42.68,0.0,1.0,1.0,1.0
42.72,0.0,1.0,1.0,1.0
42.76,6.0,1.0,1.0,1.0
42.8,11.0,1.0,1.0,1.0
42.84,3.0,1.0,1.0,1.0
42.88,0.0,1.0,1.0,1.0
42.92,5.5056,1.0,1.0,1.0
42.96,6.5056,1.0,1.0,1.0
43.0,16.0,1.0,1.0,1.0
43.04,8.4944,1.0,1.0,1.0
43.08,7.0,1.0,1.0,1.0
43.12,6.4944,1.0,1.0,1.0
43.16,8.0,1.0,1.0,1.0
43.2,14.0,1.0,1.0,1.0
43.24,13.4944,1.0,1.0,1.0
43.28,20.5056,1.0,1.0,1.0
43.32,0.0,1.0,1.0,1.0
43.36,31.0,1.0,1.0,1.0
43.4,7.0,1.0,1.0,1.0
43.44,6.0,1.0,1.0,1.0
43.48,11.0,1.0,1.0,1.0
43.52,20.4944,1.0,1.0,1.0
43.56,7.0,1.0,1.0,1.0
43.6,7.0,1.0,1.0,1.0
43.64,2.0,1.0,1.0,1.0
43.68,3.0,1.0,1.0,1.0
43.72,3.0,1.0,1.0,1.0
43.76,4.0,1.0,1.0,1.0
43.8,0.0,1.0,1.0,1.0
43.84,0.0,1.0,1.0,1.0
43.88,9.0,1.0,1.0,1.0
43.92,11.0,1.0,1.0,1.0
43.96,4.0,1.0,1.0,1.0
44.0,14.0,1.0,1.0,1.0
44.04,22.4944,1.0,1.0,1.0
44.08,23.0,1.0,1.0,1.0
44.12,33.4833,1.0,1.0,1.0
44.16,56.5056,1.0,1.0,1.0
44.2,70.0111,1.0,1.0,1.0
44.24,60.5056,1.0,1.0,1.0
44.28,81.5056,1.0,1.0,1.0
44.32,110.0111,1.0,1.0,1.0
44.36,128.0,1.0,1.0,1.0
44.4,141.0222,1.0,1.0,1.0
44.44,172.4944,1.0,1.0,1.0
44.48,206.5056,1.0,1.0,1.0
44.52,198.4944,1.0,1.0,1.0
44.56,223.5056,1.0,1.0,1.0
44.6,283.4944,1.0,1.0,1.0
44.64,291.5056,1.0,1.0,1.0
44.68,290.4722,1.0,1.0,1.0
44.72,328.4833,1.0,1.0,1.0
44.76,389.0,1.0,1.0,1.0
44.8,376.5167,1.0,1.0,1.0
44.84,390.4833,1.0,1.0,1.0
44.88,404.0111,1.0,1.0,1.0
44.92,464.5389,1.0,1.0,1.0
44.96,448.0,1.0,1.0,1.0
45.0,436.4389,1.0,1.0,1.0
45.04,477.0111,1.0,1.0,1.0
45.08,464.9889,1.0,1.0,1.0
45.12,408.9667,1.0,1.0,1.0
45.16,459.4944,1.0,1.0,1.0
45.2,480.5056,1.0,1.0,1.0
45.24,454.0,1.0,1.0,1.0
45.28,469.4722,1.0,1.0,1.0
45.32,441.4833,1.0,1.0,1.0
45.36,415.0,1.0,1.0,1.0
45.4,392.5278,1.0,1.0,1.0
45.44,388.9889,1.0,1.0,1.0
45.48,395.0,1.0,1.0,1.0
45.52,360.5167,1.0,1.0,1.0
45.56,351.0111,1.0,1.0,1.0
45.6,310.0111,1.0,1.0,1.0
45.64,313.0111,1.0,1.0,1.0
45.68,321.0222,1.0,1.0,1.0
45.72,287.0333,1.0,1.0,1.0
45.76,252.4944,1.0,1.0,1.0
45.8,240.9667,1.0,1.0,1.0
45.84,207.4722,1.0,1.0,1.0
45.88,221.4611,1.0,1.0,1.0
45.92,208.9778,1.0,1.0,1.0
45.96,195.0111,1.0,1.0,1.0
46.0,204.0222,1.0,1.0,1.0
46.04,189.5056,1.0,1.0,1.0
46.08,185.0111,1.0,1.0,1.0
46.12,149.5056,1.0,1.0,1.0
46.16,173.0222,1.0,1.0,1.0
46.2,181.5056,1.0,1.0,1.0
46.24,133.9778,1.0,1.0,1.0
46.28,158.5056,1.0,1.0,1.0
46.32,148.5056,1.0,1.0,1.0
46.36,142.0111,1.0,1.0,1.0
46.4,184.9889,1.0,1.0,1.0
46.44,177.0,1.0,1.0,1.0
46.48,165.5056,1.0,1.0,1.0
46.52,159.5056,1.0,1.0,1.0
46.56,162.5167,1.0,1.0,1.0
46.6,127.0,1.0,1.0,1.0
46.64,146.0222,1.0,1.0,1.0
46.68,131.5056,1.0,1.0,1.0
46.72,157.4944,1.0,1.0,1.0
46.76,158.5056,1.0,1.0,1.0
46.8,127.0111,1.0,1.0,1.0
46.84,147.0,1.0,1.0,1.0
46.88,127.4944,1.0,1.0,1.0
46.92,134.5056,1.0,1.0,1.0
46.96,99.0222,1.0,1.0,1.0
47.0,106.5056,1.0,1.0,1.0
47.04,95.0111,1.0,1.0,1.0
47.08,103.4833,1.0,1.0,1.0
47.12,92.5167,1.0,1.0,1.0
47.16,130.0,1.0,1.0,1.0
47.2,125.4944,1.0,1.0,1.0
47.24,113.5056,1.0,1.0,1.0
47.28,112.0,1.0,1.0,1.0
47.32,125.5056,1.0,1.0,1.0
47.36,152.4833,1.0,1.0,1.0
47.4,177.0111,1.0,1.0,1.0
47.44,202.4944,1.0,1.0,1.0
47.48,243.9778,1.0,1.0,1.0
47.52,241.4833,1.0,1.0,1.0
47.56,350.9889,1.0,1.0,1.0
47.6,407.0111,1.0,1.0,1.0
47.64,536.4944,1.0,1.0,1.0
47.68,750.9778,1.0,1.0,1.0
47.72,1104.08,1.0,1.0,1.0
47.76,1655.96,1.0,1.0,1.0
47.8,2852.94,1.0,1.0,1.0
47.84,6420.94,1.0,1.0,1.0
47.88,22876.373,1.0,1.0,1.0
47.92,1301861.0,1.0,1.0,1.0
47.96,4745553.5,1.0,1.0,1.0
48.0,1721180.875,1.0,1.0,1.0
48.04,179673,1.0,1.0,1.0
48.08,19139.7,1.0,1.0,1.0
48.12,5965.13,1.0,1.0,1.0
48.16,2618.1,1.0,1.0,1.0
48.2,1401.55,1.0,1.0,1.0
48.24,874.4944,1.0,1.0,1.0
48.28,555.0222,1.0,1.0,1.0
48.32,372.0111,1.0,1.0,1.0
48.36,315.4722,1.0,1.0,1.0
48.4,186.9889,1.0,1.0,1.0
48.44,198.5167,1.0,1.0,1.0
48.48,172.9889,1.0,1.0,1.0
48.52,114.5056,1.0,1.0,1.0
48.56,123.4833,1.0,1.0,1.0
48.6,110.5167,1.0,1.0,1.0
48.64,90.0,1.0,1.0,1.0
48.68,66.5167,1.0,1.0,1.0
48.72,37.4944,1.0,1.0,1.0
48.76,53.5056,1.0,1.0,1.0
48.8,34.0,1.0,1.0,1.0
48.84,40.0,1.0,1.0,1.0
48.88,49.0,1.0,1.0,1.0
48.92,22.0111,1.0,1.0,1.0
48.96,25.9889,1.0,1.0,1.0
49.0,34.0,1.0,1.0,1.0
49.04,13.5056,1.0,1.0,1.0
49.08,21.0,1.0,1.0,1.0
49.12,20.0,1.0,1.0,1.0
49.16,14.0,1.0,1.0,1.0
49.2,4.0,1.0,1.0,1.0
49.24,16.0,1.0,1.0,1.0
49.28,3.0,1.0,1.0,1.0
49.32,10.0,1.0,1.0,1.0
49.36,7.0,1.0,1.0,1.0
49.4,8.0,1.0,1.0,1.0
49.44,7.0,1.0,1.0,1.0
49.48,2.0,1.0,1.0,1.0
49.52,8.0,1.0,1.0,1.0
49.56,5.4944,1.0,1.0,1.0
49.6,6.4944,1.0,1.0,1.0
49.64,10.0,1.0,1.0,1.0
49.68,5.0,1.0,1.0,1.0
49.72,4.0,1.0,1.0,1.0
49.76,5.0,1.0,1.0,1.0
49.8,4.0,1.0,1.0,1.0
49.84,2.0,1.0,1.0,1.0
49.88,4.0,1.0,1.0,1.0
49.92,0.0,1.0,1.0,1.0
49.96,1.0,1.0,1.0,1.0
50.0,6.0,1.0,1.0,1.0
50.04,4.0,1.0,1.0,1.0
50.08,7.0,1.0,1.0,1.0
50.12,0.0,1.0,1.0,1.0
50.16,6.0,1.0,1.0,1.0
50.2,3.0,1.0,1.0,1.0
50.24,2.0,1.0,1.0,1.0
50.28,2.5056,1.0,1.0,1.0
50.32,5.0,1.0,1.0,1.0
50.36,4.0,1.0,1.0,1.0
50.4,4.0,1.0,1.0,1.0
50.44,0.0,1.0,1.0,1.0
50.48,0.0,1.0,1.0,1.0
50.52,0.0,1.0,1.0,1.0
50.56,2.0,1.0,1.0,1.0
50.6,0.0,1.0,1.0,1.0
50.64,4.0,1.0,1.0,1.0
50.68,0.0,1.0,1.0,1.0
50.72,2.0,1.0,1.0,1.0
50.76,4.5056,1.0,1.0,1.0
50.8,3.5056,1.0,1.0,1.0
50.84,2.0,1.0,1.0,1.0
50.88,4.0,1.0,1.0,1.0
50.92,2.0,1.0,1.0,1.0
50.96,2.0,1.0,1.0,1.0
51.0,4.0,1.0,1.0,1.0
51.04,0.0,1.0,1.0,1.0
51.08,3.0,1.0,1.0,1.0
51.12,4.0,1.0,1.0,1.0
51.16,2.0,1.0,1.0,1.0
51.2,0.0,1.0,1.0,1.0
51.24,4.0,1.0,1.0,1.0
51.28,2.0,1.0,1.0,1.0
51.32,2.0,1.0,1.0,1.0
51.36,0.4944,1.0,1.0,1.0
51.4,2.0,1.0,1.0,1.0
51.44,0.0,1.0,1.0,1.0
51.48,4.0,1.0,1.0,1.0
51.52,0.5056,1.0,1.0,1.0
51.56,0.0,1.0,1.0,1.0
51.6,0.0,1.0,1.0,1.0
51.64,0.0,1.0,1.0,1.0
51.68,1.5056,1.0,1.0,1.0
51.72,0.0,1.0,1.0,1.0
51.76,0.0,1.0,1.0,1.0
51.8,0.0,1.0,1.0,1.0
51.84,4.0,1.0,1.0,1.0
51.88,0.0,1.0,1.0,1.0
51.92,3.0,1.0,1.0,1.0
51.96,0.0,1.0,1.0,1.0
52.0,1.0,1.0,1.0,1.0

File: 22099_STOL_annealed_XRD_2-Theta_Omega.asc
*TYPE		=  Raw
*CLASS		=  ASCII CLASS
*SAMPLE		=
*COMMENT	=
*FNAME		=  22099_STOL_annealed_XRD_2-Theta_Omega.asc
*DATE		=  01-Jul-22 16:52

*GROUP_COUNT	=  1
*GONIO		=  SmartLab(In-plane), 0.000000
*ATTACHMENT	=  Z-Phi Stage
*ASC		=  0, 0, 0.000000, 0.000000
*I_MONOCHRO	=  Ge(220)x2, 0.000000
*FILTER		=  None
*C_MONOCHRO	=  None, 0.000000
*SLIT_NAME	=  0, Incident slit
*SLIT_NAME	=  1, Receiving slit # 1
*SLIT_NAME	=  2, Receiving slit # 2
*COUNTER	=  D/teX Ultra 250, 0
*POS_FORMAT	=  0
*SCAN_AXIS	=  2Theta/Omega
*MEAS_MODE	=  Continuous Scanning
*TARGET		=  29
*XRAY_CHAR	=  K-ALPHA1
*WAVE_LENGTH1	=  1.54059
*WAVE_LENGTH2	=  1.54441
*THICKNESS	=  0, 0.000000
*MU		=  0, 0.000000
*SCAN_MODE	=  2Theta/Omega
*SPEED_DIM	=  sec./step
*XUNIT		=  deg.
*YUNIT		=  counts
*SCALE_MODE	=  1
*REP_COUNT	=  0
*SE_COUNT	=  0
*STD_MATERIAL	=  Unknown, Unknown, 0.000000, 0.000000, 0.000000, 0.000000, 0.000000, 0.000000
*LATT_CONS	=  0, Unknown, Unknown, 0.000000, 0.000000, 0.000000, 0.000000, 0.000000, 0.000000
*SEC_COUNT	=  1
*TSPEC_SIZE	=  0
*EXTRA_SIZE	=  0
*MEMO		=

*BEGIN
*GROUP		=  0
*START		=  42
*STOP		=  52
*STEP		=  0.01
*OFFSET		=  -0.041400
*SPEED		=  18.1406
*SLIT_SPEC	=  0, 0.400mm, 0.4, 0.000000
*SLIT_SPEC	=  1, 0.400mm, 0.4, 0.000000
*SLIT_SPEC	=  2, 0.400mm, 0.4, 0.000000
*KV		=  40
*MA		=  30
*LOW		=  0.000000
*HIGH		=  0.000000
*CTEMPER	=  0, 0.000000
*CTEMPER	=  1, 0.000000
*CTEMPER	=  2, 0.000000
*PAREX		=  0, 0.000000
*PAREX		=  1, 0.000000
*PAREX		=  2, 0.000000
*PAREX		=  3, 0.000000
*PAREX		=  4, 0.000000
*PAREX		=  5, 0.000000
*PAREX		=  6, 0.000000
*PAREX		=  7, 0.000000
*PAREX		=  8, 0.000000
*PAREX		=  9, 0.000000
*PAREX		=  10, 0.000000
*PAREX		=  11, 0.000000
*PAREX		=  12, 0.000000
*PAREX		=  13, 0.000000
*PAREX		=  14, 0.000000
*PAREX		=  15, 0.000000
*FULL_SCALE	=  448844
*INDEX		=  0, 0, 0
*COUNT		=  1001
0.000000, 0.000000, 4.49445, 4.50555
7, 2, 2, 2
3.49445, 2.50555, 2, 3
2, 0.000000, 0.000000, 3
4, 2, 2, 2
0.000000, 5, 5, 8
5, 5, 2, 0.000000
2, 5, 2, 0.000000
2, 5, 3, 6
2, 0.000000, 0.000000, 0.000000
0.000000, 4, 0.000000, 0.000000
2, 2, 0.000000, 0.000000
4, 0.000000, 2, 0.000000
2, 2, 0.000000, 2
2, 2, 6, 4
0.000000, 6, 0.000000, 4
0.000000, 3, 0.000000, 2
0.000000, 5, 0.494446, 1.50555
0.000000, 18, 0.000000, 2
6, 2, 6, 4
11, 1, 7, 0.000000
3, 0.000000, 2, 0.000000
0.000000, 6, 5, 4.49445
5.50555, 0.000000, 3, 2.49445
6.50555, 4, 2, 2
16, 5, 3, 2
8.49445, 8, 1.50555, 9
7, 4, 7.49445, 1.50555
6.49445, 6.50555, 14, 19
8, 2, 6, 6.49445
14, 7.50555, 9.49445, 17.5056
13.4944, 16.5056, 10, 14.4944
20.5056, 8, 7, 7
0.000000, 6, 12, 7
31, 6.49445, 13.5056, 17
7, 7.49445, 9.50555, 6
6, 8, 14, 2
11, 7, 6, 7
20.4944, 4, 7.50555, 17
7, 7, 7, 12
7, 8, 5, 0.000000
2, 8, 5, 2
3, 0.000000, 7, 2
3, 0.000000, 8, 3
4, 4, 5, 4
0.000000, 2, 7, 3
0.000000, 11, 18, 0.000000
9, 2, 3, 2
11, 18, 11, 2
4, 11, 2.49445, 13.5056
14, 16.4944, 22.5056, 18.4944
22.4944, 23.0111, 23, 26
23, 27.9889, 25.4944, 46.5167
33.4833, 53.0111, 42, 50.9889
56.5056, 57, 45, 71
70.0111, 65.4944, 62, 48.9889
60.5056, 94.5056, 70, 108.989
81.5056, 96, 95, 92
110.011, 119.978, 143.011, 111
128, 115, 130.494, 140.483
141.022, 134.011, 147.989, 146.494
172.494, 180.494, 177.517, 194.989
206.506, 186.494, 214.011, 202.506
198.494, 217.989, 226.483, 247.506
223.506, 226.978, 246.011, 272
283.494, 260.528, 282.483, 262
291.506, 285.494, 266.011, 305.506
290.472, 308.011, 335.494, 320.011
328.483, 341.506, 360.461, 350.539
389, 400.989, 366.506, 402
376.517, 359.011, 383, 385.978
390.483, 403, 420.989, 368.517
404.011, 412.494, 411.506, 424.472
464.539, 396.494, 387.483, 371.989
448, 462.528, 439.494, 485
436.439, 510.55, 468, 440
477.011, 470.989, 434.506, 460
464.989, 443.494, 459.506, 461.528
408.967, 485.011, 455.506, 475.978
459.494, 431.539, 470.472, 464.517
480.506, 447.506, 431.483, 487.494
454, 425.506, 479.011, 467.494
469.472, 458.539, 411.517, 428.472
441.483, 441, 403, 415.022
415, 407.517, 441.967, 401.494
392.528, 429.989, 379.494, 360.011
388.989, 410.011, 444.989, 365.011
395, 388.494, 379, 412.978
360.517, 398, 386, 354.528
351.011, 338.461, 351.011, 294.506
310.011, 340, 310.483, 334.011
313.011, 298.978, 291.483, 325.517
321.022, 277.483, 320.506, 290.461
287.033, 262.483, 258, 266.044
252.494, 260.494, 251.494, 224.506
240.967, 244.506, 209.011, 249.022
207.472, 220, 244.022, 229.506
221.461, 222.022, 207.494, 178.022
208.978, 221.517, 204.483, 192.506
195.011, 191.011, 190.483, 198.989
204.022, 184.989, 170, 175
189.506, 188.989, 156.517, 149.483
185.011, 141.494, 174.517, 161.494
149.506, 161.989, 161.494, 183.494
173.022, 155.506, 163.989, 172.483
181.506, 179.494, 161.517, 156.506
133.978, 143.011, 140.506, 162.494
158.506, 183.956, 168.044, 149
148.506, 146.978, 166.494, 165.011
142.011, 140.472, 160.528, 139
184.989, 143.517, 163.494, 176.494
177, 128.494, 174.011, 146.989
165.506, 156.011, 145.989, 172.494
159.506, 164.989, 166.011, 156.989
162.517, 164.989, 170, 158
127, 147.011, 147, 150.989
146.022, 149.494, 151.461, 149.539
131.506, 156.989, 140.494, 128.494
157.494, 146.517, 148.483, 162.517
158.506, 141.989, 128.517, 134.978
127.011, 155.989, 154.011, 127.989
147, 131.022, 104.483, 126
127.494, 128.494, 127, 118.011
134.506, 130.494, 138.472, 144.011
99.0222, 106.494, 132.989, 108.022
106.506, 109.483, 116.011, 128.989
95.0111, 112.506, 119.472, 110.022
103.483, 99.0222, 117.483, 101
92.5167, 83.4833, 119.494, 115.506
130, 117.011, 101.483, 124.022
125.494, 105.494, 98.5056, 128.989
113.506, 86.9889, 119, 128.506
112, 122, 106, 116.494
125.506, 135.517, 113, 148
152.483, 146.494, 155.022, 169.472
177.011, 146.517, 174.472, 216.506
202.494, 215.494, 187.517, 219.506
243.978, 243, 264.011, 272
241.483, 297.978, 331.528, 306.506
350.989, 353, 391.989, 370.483
407.011, 450.011, 467.989, 519.494
536.494, 655.517, 659.944, 700.539
750.978, 852.989, 898.044, 979.889
1104.08, 1317.47, 1453.47, 1495.51
1655.96, 1988.46, 2211.93, 2631.45
2852.94, 3369.04, 4099.34, 5109.39
6420.94, 8105.63, 10587.9, 15071.2
22876.4, 41192.1, 139097, 583689
1301861, 2170760.3, 3552386.5, 4742846
4745553.5, 5418685.5, 6058299, 2643462
1721180.9, 1712454.8, 1701545.3, 721622
179673, 79570, 46076, 29529.9
19139.7, 13494.5, 9985.88, 7548.71
5965.13, 4705.18, 3814.47, 3154.11
2618.1, 2206.92, 1921.56, 1638
1401.55, 1220.53, 1124.53, 964.517
874.494, 843.978, 715.55, 613.989
555.022, 516.494, 454.022, 414.494
372.011, 361.483, 315.483, 331.022
315.472, 291.044, 230, 233.022
186.989, 223, 237.483, 197.494
198.517, 156.011, 173.989, 160
172.989, 147.506, 146.494, 114.022
114.506, 116.494, 108.978, 93.0222
123.483, 110.011, 96.0111, 85.4833
110.517, 71.9889, 70.9889, 64.0111
90, 62.9889, 78.5167, 77.9889
66.5167, 73, 54, 44.4944
37.4944, 45.5056, 54.5056, 49.4944
53.5056, 49, 44, 42
34, 40, 47.4833, 34.5167
40, 32.9889, 30.5056, 28
49, 35, 34.5056, 24.9889
22.0111, 23, 24, 27
25.9889, 26.0111, 34, 20
34, 17.4944, 14.5056, 20.4944
13.5056, 10, 16, 19
21, 17.4944, 11.5056, 10
20, 14, 14, 10
14, 14, 9.49445, 11.5056
4, 7, 17, 16
16, 10, 5, 11
3, 11, 0.000000, 15
10, 9, 8, 8
7, 8, 5, 5
8, 9, 3, 4
7, 2, 16, 3
2, 8, 5, 0.000000
8, 8, 9, 2
5.49445, 3.50555, 11, 0.000000
6.49445, 2.50555, 2, 2
10, 6.49445, 7, 11.5056
5, 10, 2, 4
4, 4, 5, 2
5, 6, 5, 10
4, 5, 2, 5
2, 4, 2, 3
4, 2, 6, 4
0.000000, 2, 3, 4
1, 4.49445, 0.505554, 6
6, 0.000000, 4, 4
4, 5, 2, 8
7, 1.49445, 5.50555, 7
0.000000, 4, 2, 10
6, 2, 0.000000, 2
3, 2, 2, 8
2, 5.49445, 1.50555, 2.49445
2.50555, 3, 0.000000, 0.000000
5, 5, 0.000000, 2
4, 4, 2, 2
4, 2.49445, 5.50555, 5
0.000000, 4, 4, 5
0.000000, 6, 2, 4
0.000000, 0.000000, 2, 3
2, 2, 2, 2
0.000000, 0.000000, 2, 5
4, 0.000000, 0.000000, 3
0.000000, 0.000000, 0.000000, 0.000000
2, 2, 2, 0.494446
4.50555, 0.000000, 3, 0.494446
3.50555, 3, 1, 2
2, 2, 2, 2
4, 2, 2, 0.000000
2, 0.000000, 2, 0.000000
2, 0.000000, 0.000000, 5
4, 6, 2, 5
0.000000, 5, 2, 0.000000
3, 2, 3, 0.000000
4, 2, 2, 0.000000
2, 2, 0.000000, 0.000000
0.000000, 0.000000, 0.000000, 0.000000
4, 0.000000, 5, 2
2, 0.000000, 3, 2
2, 2, 4, 2
0.494446, 1.50555, 0.000000, 0.000000
2, 0.000000, 9, 2
0.000000, 9, 1, 2
4, 2, 4, 0.494446
0.505554, 0.000000, 0.000000, 0.000000
0.000000, 0.000000, 0.000000, 5
0.000000, 0.000000, 2, 0.000000
0.000000, 0.000000, 2, 1.49445
1.50555, 0.000000, 0.000000, 0.000000
0.000000, 5, 0.000000, 2
0.000000, 4, 0.000000, 0.000000
0.000000, 0.000000, 0.000000, 4
4, 0.000000, 0.000000, 0.000000
0.000000, 1, 2, 5
3, 5, 2, 0.000000
0.000000, 0.000000, 2, 0.000000
1
*END

*EOF

File: 22099_STOL_XRD.csv
#twotheta, yobs, ycal, bkg, diff
42.0,5.0,1.0,1.0,1.0
42.04,2.0,1.0,1.0,1.0
42.08,5.0,1.0,1.0,1.0
42.12,0.0,1.0,1.0,1.0
42.16,0.0,1.0,1.0,1.0
42.2,4.0,1.0,1.0,1.0
42.24,5.0,1.0,1.0,1.0
42.28,3.0,1.0,1.0,1.0
42.32,2.0,1.0,1.0,1.0
42.36,2.0,1.0,1.0,1.0
42.4,1.0,1.0,1.0,1.0
42.44,5.0,1.0,1.0,1.0
42.48,5.0,1.0,1.0,1.0
42.52,2.4944,1.0,1.0,1.0
42.56,0.0,1.0,1.0,1.0
42.6,5.0,1.0,1.0,1.0
42.64,0.0,1.0,1.0,1.0
42.68,4.0,1.0,1.0,1.0
42.72,3.0,1.0,1.0,1.0
42.76,2.0,1.0,1.0,1.0
42.8,3.0,1.0,1.0,1.0
42.84,2.0,1.0,1.0,1.0
42.88,2.0,1.0,1.0,1.0
42.92,2.0,1.0,1.0,1.0
42.96,2.0,1.0,1.0,1.0
43.0,2.0,1.0,1.0,1.0
43.04,9.5056,1.0,1.0,1.0
43.08,1.5056,1.0,1.0,1.0
43.12,6.5056,1.0,1.0,1.0
43.16,9.0,1.0,1.0,1.0
43.2,9.0,1.0,1.0,1.0
43.24,12.9889,1.0,1.0,1.0
43.28,13.5056,1.0,1.0,1.0
43.32,17.5056,1.0,1.0,1.0
43.36,10.4833,1.0,1.0,1.0
43.4,5.0,1.0,1.0,1.0
43.44,9.0111,1.0,1.0,1.0
43.48,6.0,1.0,1.0,1.0
43.52,7.5056,1.0,1.0,1.0
43.56,14.0,1.0,1.0,1.0
43.6,13.0,1.0,1.0,1.0
43.64,14.0,1.0,1.0,1.0
43.68,5.4944,1.0,1.0,1.0
43.72,3.0,1.0,1.0,1.0
43.76,8.0,1.0,1.0,1.0
43.8,10.0,1.0,1.0,1.0
43.84,0.4944,1.0,1.0,1.0
43.88,12.0111,1.0,1.0,1.0
43.92,6.0,1.0,1.0,1.0
43.96,6.0,1.0,1.0,1.0
44.0,12.4944,1.0,1.0,1.0
44.04,14.0,1.0,1.0,1.0
44.08,29.0,1.0,1.0,1.0
44.12,20.5056,1.0,1.0,1.0
44.16,27.5056,1.0,1.0,1.0
44.2,63.9889,1.0,1.0,1.0
44.24,70.0,1.0,1.0,1.0
44.28,65.5056,1.0,1.0,1.0
44.32,113.4944,1.0,1.0,1.0
44.36,129.5056,1.0,1.0,1.0
44.4,139.0,1.0,1.0,1.0
44.44,187.0,1.0,1.0,1.0
44.48,203.4944,1.0,1.0,1.0
44.52,224.5167,1.0,1.0,1.0
44.56,233.4944,1.0,1.0,1.0
44.6,246.0222,1.0,1.0,1.0
44.64,269.5167,1.0,1.0,1.0
44.68,292.0111,1.0,1.0,1.0
44.72,310.5167,1.0,1.0,1.0
44.76,356.0222,1.0,1.0,1.0
44.8,359.9667,1.0,1.0,1.0
44.84,356.4833,1.0,1.0,1.0
44.88,407.5056,1.0,1.0,1.0
44.92,434.0333,1.0,1.0,1.0
44.96,442.0333,1.0,1.0,1.0
45.0,473.4944,1.0,1.0,1.0
45.04,532.4944,1.0,1.0,1.0
45.08,475.55,1.0,1.0,1.0
45.12,474.9889,1.0,1.0,1.0
45.16,481.0111,1.0,1.0,1.0
45.2,496.4722,1.0,1.0,1.0
45.24,524.5167,1.0,1.0,1.0
45.28,522.4833,1.0,1.0,1.0
45.32,472.4833,1.0,1.0,1.0
45.36,509.4944,1.0,1.0,1.0
45.4,424.5389,1.0,1.0,1.0
45.44,439.5056,1.0,1.0,1.0
45.48,421.0,1.0,1.0,1.0
45.52,387.4944,1.0,1.0,1.0
45.56,452.5278,1.0,1.0,1.0
45.6,367.5278,1.0,1.0,1.0
45.64,334.9778,1.0,1.0,1.0
45.68,363.4944,1.0,1.0,1.0
45.72,312.5278,1.0,1.0,1.0
45.76,295.9889,1.0,1.0,1.0
45.8,265.0,1.0,1.0,1.0
45.84,259.4833,1.0,1.0,1.0
45.88,268.0111,1.0,1.0,1.0
45.92,210.4944,1.0,1.0,1.0
45.96,265.4944,1.0,1.0,1.0
46.0,199.0,1.0,1.0,1.0
46.04,224.0,1.0,1.0,1.0
46.08,197.0,1.0,1.0,1.0
46.12,190.0,1.0,1.0,1.0
46.16,194.5167,1.0,1.0,1.0
46.2,162.5056,1.0,1.0,1.0
46.24,181.5056,1.0,1.0,1.0
46.28,195.0,1.0,1.0,1.0
46.32,168.0,1.0,1.0,1.0
46.36,164.4944,1.0,1.0,1.0
46.4,183.4944,1.0,1.0,1.0
46.44,186.5167,1.0,1.0,1.0
46.48,170.0111,1.0,1.0,1.0
46.52,167.9778,1.0,1.0,1.0
46.56,187.5167,1.0,1.0,1.0
46.6,145.9889,1.0,1.0,1.0
46.64,151.4944,1.0,1.0,1.0
46.68,157.4944,1.0,1.0,1.0
46.72,139.0,1.0,1.0,1.0
46.76,130.0222,1.0,1.0,1.0
46.8,122.0333,1.0,1.0,1.0
46.84,121.4944,1.0,1.0,1.0
46.88,127.9889,1.0,1.0,1.0
46.92,104.4944,1.0,1.0,1.0
46.96,120.4944,1.0,1.0,1.0
47.0,112.0,1.0,1.0,1.0
47.04,121.9889,1.0,1.0,1.0
47.08,87.5056,1.0,1.0,1.0
47.12,127.4944,1.0,1.0,1.0
47.16,131.0111,1.0,1.0,1.0
47.2,110.0111,1.0,1.0,1.0
47.24,116.0,1.0,1.0,1.0
47.28,132.5167,1.0,1.0,1.0
47.32,129.5056,1.0,1.0,1.0
47.36,147.5056,1.0,1.0,1.0
47.4,196.4944,1.0,1.0,1.0
47.44,218.5056,1.0,1.0,1.0
47.48,236.4722,1.0,1.0,1.0
47.52,277.5167,1.0,1.0,1.0
47.56,351.0,1.0,1.0,1.0
47.6,403.0111,1.0,1.0,1.0
47.64,559.5722,1.0,1.0,1.0
47.68,751.0222,1.0,1.0,1.0
47.72,1130.54,1.0,1.0,1.0
47.76,1722.49,1.0,1.0,1.0
47.8,3056.86,1.0,1.0,1.0
47.84,5912.03,1.0,1.0,1.0
47.88,17312.7,1.0,1.0,1.0
47.92,329296,1.0,1.0,1.0
47.96,4129687.0,1.0,1.0,1.0
48.0,5003862.5,1.0,1.0,1.0
48.04,492648,1.0,1.0,1.0
48.08,24179.3,1.0,1.0,1.0
48.12,6707.81,1.0,1.0,1.0
48.16,2904.51,1.0,1.0,1.0
48.2,1516.09,1.0,1.0,1.0
48.24,923.0444,1.0,1.0,1.0
48.28,548.4944,1.0,1.0,1.0
48.32,414.5167,1.0,1.0,1.0
48.36,285.5056,1.0,1.0,1.0
48.4,244.5167,1.0,1.0,1.0
48.44,179.4944,1.0,1.0,1.0
48.48,101.5278,1.0,1.0,1.0
48.52,111.0,1.0,1.0,1.0
48.56,110.0,1.0,1.0,1.0
48.6,93.0,1.0,1.0,1.0
48.64,73.9889,1.0,1.0,1.0
48.68,72.9889,1.0,1.0,1.0
48.72,56.5056,1.0,1.0,1.0
48.76,33.0,1.0,1.0,1.0
48.8,41.5056,1.0,1.0,1.0
48.84,43.0111,1.0,1.0,1.0
48.88,39.0,1.0,1.0,1.0
48.92,29.4944,1.0,1.0,1.0
48.96,21.4944,1.0,1.0,1.0
49.0,32.0,1.0,1.0,1.0
49.04,20.0,1.0,1.0,1.0
49.08,15.5056,1.0,1.0,1.0
49.12,11.4944,1.0,1.0,1.0
49.16,18.0,1.0,1.0,1.0
49.2,7.0,1.0,1.0,1.0
49.24,14.0111,1.0,1.0,1.0
49.28,4.0,1.0,1.0,1.0
49.32,6.0,1.0,1.0,1.0
49.36,6.0,1.0,1.0,1.0
49.4,5.0,1.0,1.0,1.0
49.44,7.5056,1.0,1.0,1.0
49.48,5.5056,1.0,1.0,1.0
49.52,20.5056,1.0,1.0,1.0
49.56,6.0,1.0,1.0,1.0
49.6,9.0,1.0,1.0,1.0
49.64,9.0,1.0,1.0,1.0
49.68,10.0,1.0,1.0,1.0
49.72,7.5056,1.0,1.0,1.0
49.76,5.0,1.0,1.0,1.0
49.8,3.0,1.0,1.0,1.0
49.84,2.0,1.0,1.0,1.0
49.88,2.0,1.0,1.0,1.0
49.92,2.5056,1.0,1.0,1.0
49.96,2.0,1.0,1.0,1.0
50.0,2.4944,1.0,1.0,1.0
50.04,2.0,1.0,1.0,1.0
50.08,9.0,1.0,1.0,1.0
50.12,7.0,1.0,1.0,1.0
50.16,0.5056,1.0,1.0,1.0
50.2,4.0,1.0,1.0,1.0
50.24,5.0111,1.0,1.0,1.0
50.28,0.0,1.0,1.0,1.0
50.32,1.0111,1.0,1.0,1.0
50.36,4.0,1.0,1.0,1.0
50.4,5.0,1.0,1.0,1.0
50.44,0.0,1.0,1.0,1.0
50.48,2.0,1.0,1.0,1.0
50.52,2.0,1.0,1.0,1.0
50.56,0.0,1.0,1.0,1.0
50.6,2.0,1.0,1.0,1.0
50.64,0.0,1.0,1.0,1.0
50.68,5.0,1.0,1.0,1.0
50.72,2.0,1.0,1.0,1.0
50.76,0.0,1.0,1.0,1.0
50.8,3.0,1.0,1.0,1.0
50.84,2.0,1.0,1.0,1.0
50.88,8.0,1.0,1.0,1.0
50.92,0.0,1.0,1.0,1.0
50.96,0.0,1.0,1.0,1.0
51.0,3.0,1.0,1.0,1.0
51.04,6.0,1.0,1.0,1.0
51.08,2.0,1.0,1.0,1.0
51.12,0.0,1.0,1.0,1.0
51.16,5.0,1.0,1.0,1.0
51.2,0.0,1.0,1.0,1.0
51.24,2.0,1.0,1.0,1.0
51.28,0.0,1.0,1.0,1.0
51.32,0.0,1.0,1.0,1.0
51.36,2.0,1.0,1.0,1.0
51.4,2.0,1.0,1.0,1.0
51.44,3.0,1.0,1.0,1.0
51.48,0.0,1.0,1.0,1.0
51.52,0.0,1.0,1.0,1.0
51.56,3.4944,1.0,1.0,1.0
51.6,6.0,1.0,1.0,1.0
51.64,4.0,1.0,1.0,1.0
51.68,2.0,1.0,1.0,1.0
51.72,0.0,1.0,1.0,1.0
51.76,3.0,1.0,1.0,1.0
51.8,3.0,1.0,1.0,1.0
51.84,0.0,1.0,1.0,1.0
51.88,5.0,1.0,1.0,1.0
51.92,6.0,1.0,1.0,1.0
51.96,2.0,1.0,1.0,1.0
52.0,2.0,1.0,1.0,1.0