Folder: Analysis/XRD:XRR/STO/22098_STOL

File: 22098_STOL_XRD.csv
#twotheta, yobs, ycal, bkg, diff
39.0,6.0,1.0,1.0,1.0
39.07,3.0,1.0,1.0,1.0
39.14,2.0,1.0,1.0,1.0
39.21,3.0,1.0,1.0,1.0
39.28,7.0,1.0,1.0,1.0
39.35,2.0,1.0,1.0,1.0
39.42,0.0,1.0,1.0,1.0
39.49,5.0,1.0,1.0,1.0
39.56,0.0,1.0,1.0,1.0
39.63,0.0,1.0,1.0,1.0
39.7,7.0,1.0,1.0,1.0
39.77,3.0,1.0,1.0,1.0
39.84,3.0,1.0,1.0,1.0
39.91,10.0,1.0,1.0,1.0
39.98,0.0,1.0,1.0,1.0
40.05,2.0,1.0,1.0,1.0
40.12,5.0,1.0,1.0,1.0
40.19,1.4944,1.0,1.0,1.0
40.26,4.0,1.0,1.0,1.0
40.33,6.0,1.0,1.0,1.0
40.4,7.0,1.0,1.0,1.0
40.47,2.0,1.0,1.0,1.0
40.54,12.4944,1.0,1.0,1.0
40.61,5.0,1.0,1.0,1.0
40.68,4.5056,1.0,1.0,1.0
40.75,7.0,1.0,1.0,1.0
40.82,3.0,1.0,1.0,1.0
40.89,8.0,1.0,1.0,1.0
40.96,7.0,1.0,1.0,1.0
41.03,11.0,1.0,1.0,1.0
41.1,5.0,1.0,1.0,1.0
41.17,6.0,1.0,1.0,1.0
41.24,6.0,1.0,1.0,1.0
41.31,5.5056,1.0,1.0,1.0
41.38,15.0,1.0,1.0,1.0
41.45,4.4944,1.0,1.0,1.0
41.52,5.0,1.0,1.0,1.0
41.59,13.5056,1.0,1.0,1.0
41.66,6.0,1.0,1.0,1.0
41.73,23.0,1.0,1.0,1.0
41.8,9.0,1.0,1.0,1.0
41.87,4.0111,1.0,1.0,1.0
41.94,6.0,1.0,1.0,1.0
42.01,2.0,1.0,1.0,1.0
42.08,6.0,1.0,1.0,1.0
42.15,7.0,1.0,1.0,1.0
42.22,3.0,1.0,1.0,1.0
42.29,6.0,1.0,1.0,1.0
42.36,0.0,1.0,1.0,1.0
42.43,0.0,1.0,1.0,1.0
42.5,0.0,1.0,1.0,1.0
42.57,14.0,1.0,1.0,1.0
42.64,4.0,1.0,1.0,1.0
42.71,2.0,1.0,1.0,1.0
42.78,5.4944,1.0,1.0,1.0
42.85,14.4944,1.0,1.0,1.0
42.92,12.4944,1.0,1.0,1.0
42.99,25.0,1.0,1.0,1.0
43.06,23.5056,1.0,1.0,1.0
43.13,24.4944,1.0,1.0,1.0
43.2,36.0111,1.0,1.0,1.0
43.27,30.0,1.0,1.0,1.0
43.34,41.0,1.0,1.0,1.0
43.41,48.4944,1.0,1.0,1.0
43.48,59.4944,1.0,1.0,1.0
43.55,78.4833,1.0,1.0,1.0
43.62,76.4833,1.0,1.0,1.0
43.69,124.0,1.0,1.0,1.0
43.76,121.9889,1.0,1.0,1.0
43.83,99.4833,1.0,1.0,1.0
43.9,123.4944,1.0,1.0,1.0
43.97,156.9889,1.0,1.0,1.0
44.04,192.5056,1.0,1.0,1.0
44.11,203.0333,1.0,1.0,1.0
44.18,242.0222,1.0,1.0,1.0
44.25,228.5278,1.0,1.0,1.0
44.32,263.5056,1.0,1.0,1.0
44.39,267.5167,1.0,1.0,1.0
44.46,290.0,1.0,1.0,1.0
44.53,317.0333,1.0,1.0,1.0
44.6,331.0,1.0,1.0,1.0
44.67,341.4944,1.0,1.0,1.0
44.74,387.0111,1.0,1.0,1.0
44.81,367.9889,1.0,1.0,1.0
44.88,434.0111,1.0,1.0,1.0
44.95,434.0555,1.0,1.0,1.0
45.02,458.0222,1.0,1.0,1.0
45.09,441.9556,1.0,1.0,1.0
45.16,491.4833,1.0,1.0,1.0
45.23,510.0111,1.0,1.0,1.0
45.3,466.9667,1.0,1.0,1.0
45.37,573.9333,1.0,1.0,1.0
45.44,533.5278,1.0,1.0,1.0
45.51,550.4833,1.0,1.0,1.0
45.58,579.9778,1.0,1.0,1.0
45.65,542.0,1.0,1.0,1.0
45.72,539.9111,1.0,1.0,1.0
45.79,568.5056,1.0,1.0,1.0
45.86,469.4611,1.0,1.0,1.0
45.93,553.5278,1.0,1.0,1.0
46.0,524.0111,1.0,1.0,1.0
46.07,553.9445,1.0,1.0,1.0
46.14,536.4833,1.0,1.0,1.0
46.21,500.9778,1.0,1.0,1.0
46.28,514.9667,1.0,1.0,1.0
46.35,538.5056,1.0,1.0,1.0
46.42,503.4833,1.0,1.0,1.0
46.49,523.5056,1.0,1.0,1.0
46.56,503.0,1.0,1.0,1.0
46.63,545.5056,1.0,1.0,1.0
46.7,507.0,1.0,1.0,1.0
46.77,497.9778,1.0,1.0,1.0
46.84,485.5167,1.0,1.0,1.0
46.91,549.5278,1.0,1.0,1.0
46.98,502.4944,1.0,1.0,1.0
47.05,537.0111,1.0,1.0,1.0
47.12,581.9667,1.0,1.0,1.0
47.19,639.0444,1.0,1.0,1.0
47.26,662.5056,1.0,1.0,1.0
47.33,748.0,1.0,1.0,1.0
47.4,860.4833,1.0,1.0,1.0
47.47,1085.01,1.0,1.0,1.0
47.54,1419.03,1.0,1.0,1.0
47.61,1743.0,1.0,1.0,1.0
47.68,2514.53,1.0,1.0,1.0
47.75,4402.45,1.0,1.0,1.0
47.82,9728.9,1.0,1.0,1.0
47.89,144760,1.0,1.0,1.0
47.96,2925341.5,1.0,1.0,1.0
48.03,158775,1.0,1.0,1.0
48.1,17061.377,1.0,1.0,1.0
48.17,5118.53,1.0,1.0,1.0
48.24,2476.57,1.0,1.0,1.0
48.31,1367.53,1.0,1.0,1.0
48.38,833.4722,1.0,1.0,1.0
48.45,590.5167,1.0,1.0,1.0
48.52,416.4944,1.0,1.0,1.0
48.59,334.5056,1.0,1.0,1.0
48.66,199.4944,1.0,1.0,1.0
48.73,187.9778,1.0,1.0,1.0
48.8,126.4833,1.0,1.0,1.0
48.87,122.0222,1.0,1.0,1.0
48.94,76.5056,1.0,1.0,1.0
49.01,64.9889,1.0,1.0,1.0
49.08,58.0111,1.0,1.0,1.0
49.15,41.0,1.0,1.0,1.0
49.22,58.4833,1.0,1.0,1.0
49.29,46.4944,1.0,1.0,1.0
49.36,32.4944,1.0,1.0,1.0
49.43,28.5056,1.0,1.0,1.0
49.5,34.0,1.0,1.0,1.0
49.57,19.0,1.0,1.0,1.0
49.64,13.0,1.0,1.0,1.0
49.71,19.5056,1.0,1.0,1.0
49.78,16.5056,1.0,1.0,1.0
49.85,22.9889,1.0,1.0,1.0
49.92,16.0,1.0,1.0,1.0
49.99,10.4944,1.0,1.0,1.0
50.06,23.0,1.0,1.0,1.0
50.13,13.0,1.0,1.0,1.0
50.2,15.0111,1.0,1.0,1.0
50.27,5.5056,1.0,1.0,1.0
50.34,6.0,1.0,1.0,1.0
50.41,13.5056,1.0,1.0,1.0
50.48,12.0,1.0,1.0,1.0
50.55,14.0,1.0,1.0,1.0
50.62,3.0,1.0,1.0,1.0
50.69,11.0,1.0,1.0,1.0
50.76,7.0,1.0,1.0,1.0
50.83,7.0,1.0,1.0,1.0
50.9,6.0,1.0,1.0,1.0
50.97,2.0,1.0,1.0,1.0
51.04,12.0111,1.0,1.0,1.0
51.11,9.4944,1.0,1.0,1.0
51.18,12.0,1.0,1.0,1.0
51.25,6.0,1.0,1.0,1.0
51.32,2.0,1.0,1.0,1.0
51.39,12.0,1.0,1.0,1.0
51.46,6.4944,1.0,1.0,1.0
51.53,4.0,1.0,1.0,1.0
51.6,3.0,1.0,1.0,1.0
51.67,4.0,1.0,1.0,1.0
51.74,7.0,1.0,1.0,1.0
51.81,2.0,1.0,1.0,1.0
51.88,3.0,1.0,1.0,1.0
51.95,4.0,1.0,1.0,1.0
52.02,3.0,1.0,1.0,1.0
52.09,4.0,1.0,1.0,1.0
52.16,5.0,1.0,1.0,1.0
52.23,5.4944,1.0,1.0,1.0
52.3,1.5056,1.0,1.0,1.0
52.37,10.0,1.0,1.0,1.0
52.44,3.5056,1.0,1.0,1.0
52.51,9.0222,1.0,1.0,1.0
52.58,6.4944,1.0,1.0,1.0
52.65,6.0,1.0,1.0,1.0
52.72,0.0,1.0,1.0,1.0
52.79,6.0,1.0,1.0,1.0
52.86,6.0,1.0,1.0,1.0
52.93,2.0,1.0,1.0,1.0
53.0,7.0,1.0,1.0,1.0
53.07,10.4944,1.0,1.0,1.0
53.14,10.0,1.0,1.0,1.0
53.21,2.0,1.0,1.0,1.0
53.28,0.9889,1.0,1.0,1.0
53.35,5.0,1.0,1.0,1.0
53.42,6.5056,1.0,1.0,1.0
53.49,0.0,1.0,1.0,1.0
53.56,5.0,1.0,1.0,1.0
53.63,2.0,1.0,1.0,1.0
53.7,6.5056,1.0,1.0,1.0
53.77,5.0,1.0,1.0,1.0
53.84,0.0,1.0,1.0,1.0
53.91,2.0,1.0,1.0,1.0
53.98,2.0,1.0,1.0,1.0
54.05,15.0,1.0,1.0,1.0
54.12,4.0,1.0,1.0,1.0
54.19,10.0,1.0,1.0,1.0
54.26,4.0,1.0,1.0,1.0
54.33,6.0,1.0,1.0,1.0
54.4,6.0,1.0,1.0,1.0
54.47,8.0,1.0,1.0,1.0
54.54,4.0,1.0,1.0,1.0
54.61,2.0,1.0,1.0,1.0
54.68,3.0,1.0,1.0,1.0
54.75,0.0,1.0,1.0,1.0
54.82,0.0,1.0,1.0,1.0
54.89,3.0,1.0,1.0,1.0
54.96,0.0,1.0,1.0,1.0
55.03,0.0,1.0,1.0,1.0
55.1,0.0,1.0,1.0,1.0
55.17,5.0,1.0,1.0,1.0
55.24,2.0,1.0,1.0,1.0
55.31,7.0,1.0,1.0,1.0
55.38,6.0,1.0,1.0,1.0
55.45,6.0,1.0,1.0,1.0
55.52,0.5056,1.0,1.0,1.0
55.59,5.0,1.0,1.0,1.0
55.66,5.0,1.0,1.0,1.0
55.73,0.0,1.0,1.0,1.0
55.8,2.0,1.0,1.0,1.0
55.87,4.0,1.0,1.0,1.0
55.94,9.0,1.0,1.0,1.0
56.01,2.0,1.0,1.0,1.0
56.08,3.0,1.0,1.0,1.0
56.15,5.5056,1.0,1.0,1.0
56.22,7.0,1.0,1.0,1.0
56.29,0.0,1.0,1.0,1.0
56.36,0.4944,1.0,1.0,1.0
56.43,4.0,1.0,1.0,1.0
56.5,4.0,1.0,1.0,1.0
56.57,0.0,1.0,1.0,1.0
56.64,0.5056,1.0,1.0,1.0
56.71,1.4944,1.0,1.0,1.0
56.78,2.0,1.0,1.0,1.0
56.85,2.0,1.0,1.0,1.0
56.92,0.0,1.0,1.0,1.0
56.99,3.0,1.0,1.0,1.0
57.0,6.0,1.0,1.0,1.0

File: 22098_STOL_XRD_2-Theta_Omega.asc
*TYPE		=  Raw
*CLASS		=  ASCII CLASS
*SAMPLE		=
*COMMENT	=
*FNAME		=  22098_STOL_XRD_2-Theta_Omega.asc
*DATE		=  22-Jun-22 08:12

*GROUP_COUNT	=  1
*GONIO		=  SmartLab(In-plane), 0.000000
*ATTACHMENT	=  Z-Phi Stage
*ASC		=  0, 0, 0.000000, 0.000000
*I_MONOCHRO	=  Ge(220)x2, 0.000000
*FILTER		=  None
*C_MONOCHRO	=  None, 0.000000
*SLIT_NAME	=  0, Incident slit
*SLIT_NAME	=  1, Receiving slit # 1
*SLIT_NAME	=  2, Receiving slit # 2
*COUNTER	=  D/teX Ultra 250, 0
*POS_FORMAT	=  0
*SCAN_AXIS	=  2Theta/Omega
*MEAS_MODE	=  Continuous Scanning
*TARGET		=  29
*XRAY_CHAR	=  K-ALPHA1
*WAVE_LENGTH1	=  1.54059
*WAVE_LENGTH2	=  1.54441
*THICKNESS	=  0, 0.000000
*MU		=  0, 0.000000
*SCAN_MODE	=  2Theta/Omega
*SPEED_DIM	=  sec./step
*XUNIT		=  deg.
*YUNIT		=  counts
*SCALE_MODE	=  1
*REP_COUNT	=  0
*SE_COUNT	=  0
*STD_MATERIAL	=  Unknown, Unknown, 0.000000, 0.000000, 0.000000, 0.000000, 0.000000, 0.000000
*LATT_CONS	=  0, Unknown, Unknown, 0.000000, 0.000000, 0.000000, 0.000000, 0.000000, 0.000000
*SEC_COUNT	=  1
*TSPEC_SIZE	=  0
*EXTRA_SIZE	=  0
*MEMO		=

*BEGIN
*GROUP		=  0
*START		=  39
*STOP		=  57
*STEP		=  0.01
*OFFSET		=  0.1723
*SPEED		=  29.9581
*SLIT_SPEC	=  0, 0.400mm, 0.4, 0.000000
*SLIT_SPEC	=  1, 0.400mm, 0.4, 0.000000
*SLIT_SPEC	=  2, 0.400mm, 0.4, 0.000000
*KV		=  40
*MA		=  30
*LOW		=  0.000000
*HIGH		=  0.000000
*CTEMPER	=  0, 0.000000
*CTEMPER	=  1, 0.000000
*CTEMPER	=  2, 0.000000
*PAREX		=  0, 0.000000
*PAREX		=  1, 0.000000
*PAREX		=  2, 0.000000
*PAREX		=  3, 0.000000
*PAREX		=  4, 0.000000
*PAREX		=  5, 0.000000
*PAREX		=  6, 0.000000
*PAREX		=  7, 0.000000
*PAREX		=  8, 0.000000
*PAREX		=  9, 0.000000
*PAREX		=  10, 0.000000
*PAREX		=  11, 0.000000
*PAREX		=  12, 0.000000
*PAREX		=  13, 0.000000
*PAREX		=  14, 0.000000
*PAREX		=  15, 0.000000
*FULL_SCALE	=  1428173.5
*INDEX		=  0, 0, 0
*COUNT		=  1801
6, 0.000000, 0.000000, 10
2, 12, 4, 2
6, 2, 0.000000, 38
6, 7, 2, 0.000000
4, 2, 4, 2
3.49445, 5.50555, 0.000000, 0.000000
2, 5, 0.000000, 8
0.000000, 5.49445, 4.50555, 7
6, 4, 8, 3
6, 2, 2, 4
5, 0.000000, 0.000000, 6
0.000000, 2, 0.494446, 10
0.000000, 1, 0.000000, 3
7, 2, 6, 3.49445
5, 2, 0.000000, 4
8.50555, 0.000000, 3, 2
12, 2, 0.000000, 0.000000
0.000000, 2, 2, 5
10, 11, 3, 2
4, 2, 12.4944, 3.50555
5, 5, 13, 4
4.50555, 3.49445, 23.4944, 11.0111
8, 2, 11, 4
5, 5, 4, 0.000000
2, 7.49445, 9.50555, 4
7.50555, 7, 4, 11
8, 12, 5, 14
1, 6, 8.49445, 5.50555
6, 6, 11, 2
7.49445, 8, 8.50555, 8
10, 2, 10, 17.4944
10, 6.49445, 3.50555, 6
5, 10, 13.9889, 13.5056
5.50555, 6, 6, 7
16, 23, 9, 3
9, 6, 14, 6
4, 15, 5, 7.49445
13.0111, 7, 7, 8.49445
7, 7, 6, 5
1, 6, 3, 7
5, 1, 3, 6
6, 6, 9, 12
0.000000, 8, 6, 2
3, 4, 0.000000, 5
3, 2, 6, 4
2, 3, 10, 7
3, 6, 4, 2
13, 13, 5.49445, 11.5056
2, 14.4944, 14.5056, 13.9889
12.4944, 14.0111, 16, 13
23, 13, 15, 20
23.5056, 19.9889, 15.0111, 32
17.4944, 25.5056, 18, 28.9889
32.0111, 32.4833, 31.5056, 30
40.4944, 31.5056, 41, 38.4944
25, 48.4944, 57.5056, 62.4944
59.4944, 62.9889, 75.0111, 73.4944
94.5056, 95.4944, 65.5056, 96.0111
94.0111, 78.4833, 72.0111, 92.4833
107.494, 111.494, 106, 120
116.989, 101.506, 137, 99.4833
144.483, 145.022, 123.494, 146
180.022, 156.989, 139.483, 151.022
192.506, 200.483, 195.517, 227.989
196.494, 203.483, 211, 209.506
227.517, 230, 211.989, 254.506
211.956, 253.517, 253.483, 246.506
264.956, 266.022, 277.506, 267.517
245.978, 254.033, 290, 277.989
310.461, 317.033, 352.494, 323
331, 352, 345.494, 314
405.528, 349.978, 339.483, 382.506
316.483, 373.033, 414.944, 396.528
413.056, 435.978, 378.989, 416.506
399.528, 402.506, 403.428, 434.056
475.989, 433.022, 458.022, 499.483
456.506, 441.956, 511.494, 461.528
491.483, 473, 465.978, 512.517
483.483, 506.494, 516.011, 513
485.956, 518.528, 455.506, 490.472
499.978, 539.506, 516.022, 493.978
540.011, 577.989, 503.506, 550.483
579.517, 536.506, 579.978, 510.517
587.461, 542, 542, 559.528
539.911, 587.583, 533.517, 566.944
558.989, 536, 517.022, 558.506
558.967, 559.55, 617.944, 568.539
606.517, 519.494, 605.517, 545.506
569.506, 536.033, 539.033, 553.944
540.483, 513.506, 536.483, 543.044
524.483, 500.978, 541.022, 549.022
514.967, 508.022, 485.539, 539.461
552.517, 581.967, 538.989, 539.022
474.506, 514.989, 525.506, 577.45
523, 544, 521.472, 510.011
539.483, 461.528, 549.978, 545.506
529.022, 534.483, 507, 525.483
527.989, 497.978, 484.517, 487.989
485.517, 472.989, 538.506, 493.494
508.483, 546.472, 557.056, 511.472
536.517, 559.461, 520.033, 512.483
577.056, 569.461, 616, 600.033
598.967, 681.011, 635.45, 639.044
709.967, 664.528, 662.506, 701
784.989, 748, 784.461, 826.528
860.483, 943.978, 956.033, 999.472
1092.48, 1150.96, 1243.57, 1113.96
1528.51, 1572.01, 1487.93, 1566.03
1998.43, 2309.03, 2319.98, 2404.94
3401.33, 3644.07, 4065.96, 4402.45
7435.53, 8368.33, 9728.9, 11162.8
43829.4, 144760, 129295, 106804
2925341.5, 19156810, 33471802, 17025460
107809, 72753.6, 50911.6, 37239.7
11515.9, 9288.23, 8099.54, 6905.06
3600.08, 3209.61, 2902.99, 2719.99
1717.53, 1569.48, 1400.55, 1367.53
981.472, 879.572, 833.472, 767.011
651.461, 590.517, 486.022, 553.011
416.494, 380, 369.506, 363.022
235.506, 256.011, 226.472, 264.528
200.978, 201.517, 196.011, 187.506
157.989, 149.011, 181.989, 174.517
148.506, 121.989, 122.989, 122.022
103.506, 85, 76.5056, 69.4944
71.4944, 64.9889, 76.5056, 60
58.0111, 66.5056, 43.4944, 34.5056
41.5056, 49, 47, 39.4944
40, 46, 33, 47
35.0111, 27, 26, 28
18, 47, 23.4944, 28.5056
27.4944, 14.5056, 34, 16.4944
12.5167, 19, 28, 28
13, 27, 16, 22
19, 19.4944, 18.5056, 24.4944
16, 11.9889, 12.5056, 25.5056
7.50555, 16, 8, 18.4944
20.4944, 11.5056, 26, 10.4944
12.5056, 18, 23, 9
15.5056, 13, 26, 22
15.0111, 10, 7, 22
6, 9, 19, 11
7, 16, 11, 2
24, 13, 9, 15
12, 10.4944, 19.5056, 14
12, 10, 3, 12
5, 11, 4, 7
7, 13, 6, 7
10.4944, 2.50555, 5, 10
0.000000, 5, 7, 17
15.5056, 10, 3, 13.9889
13, 3, 43, 9.49445
6.49445, 2.50555, 12, 0.000000
6, 6, 8, 4
2, 7, 8, 12
6, 9, 8, 0.000000
5, 0.494446, 6.50555, 6
13, 11, 5, 2
10, 2, 9, 4
4, 9, 7, 8
4, 2, 0.000000, 0.000000
3, 0.000000, 1, 7
2, 8, 4, 5
9, 2, 0.000000, 3
0.000000, 0.494446, 3.50555, 0.000000
4, 4, 5, 5.49445
10, 5.49445, 1.50555, 0.000000
3, 10, 6, 4
3.50555, 0.000000, 0.000000, 2
7, 0.000000, 0.000000, 2
0.000000, 8, 2, 4
2, 2, 11, 2
4, 6, 2, 6
7, 8, 6, 0.000000
5, 2, 8, 4
7, 3, 2, 0.000000
8.50555, 0.000000, 4, 0.000000
7.49445, 0.505554, 0.000000, 2
4, 4, 9, 4
0.000000, 3, 4, 5
4, 7.49445, 6.50555, 4
1, 0.000000, 4, 1
5, 11, 6, 3
5, 4, 4, 4
2, 5.98889, 1.01111, 9
4, 11, 2, 0.000000
4, 2, 3, 2
6, 3, 2, 7
10, 15, 3.49445, 4.50555
4, 5, 2, 1
2, 2, 4, 0.000000
2, 9, 4, 0.000000
0.000000, 3, 6, 3
0.000000, 8, 3, 8
6, 3, 4, 2
3, 2, 2, 2
3, 7, 11, 2
0.000000, 6, 0.000000, 5
4, 2, 3, 7
4, 3, 2, 0.000000
2, 2, 3, 0.000000
0.000000, 4, 0.000000, 2
6, 5, 0.000000, 2
2, 2, 0.000000, 2
0.000000, 2, 10, 0.000000
4, 4, 0.000000, 5
2.50555, 3, 5, 7.49445
0.000000, 0.000000, 0.000000, 5
0.000000, 0.000000, 5, 0.000000
6, 0.000000, 0.000000, 2
2, 6, 8, 4
1.50555, 10, 5, 2
2, 4.49445, 9.50555, 7
0.000000, 8.49445, 5.50555, 4
4, 2, 0.494446, 5.50555
3, 2, 7, 0.000000
10, 0.000000, 4, 5
0.494446, 2.50555, 2, 5
2, 0.000000, 0.000000, 0.000000
0.494446, 5, 3.50555, 0.000000
2, 59, 0.000000, 7.49445
0.000000, 2, 14, 1.49445
4, 6, 2, 0.000000
4, 2, 2, 6
0.000000, 0.000000, 2, 3
6
*END

*EOF

File: 22098_STOL_XRR_2-Theta_Omega.asc
*TYPE		=  Raw
*CLASS		=  ASCII CLASS
*SAMPLE		=
*COMMENT	=
*FNAME		=  22098_STOL_XRR_2-Theta_Omega.asc
*DATE		=  21-Jun-22 16:18

*GROUP_COUNT	=  1
*GONIO		=  SmartLab(In-plane), 0.000000
*ATTACHMENT	=  Z-Phi Stage
*ASC		=  0, 0, 0.000000, 0.000000
*I_MONOCHRO	=  Ge(220)x2, 0.000000
*FILTER		=  None
*C_MONOCHRO	=  None, 0.000000
*SLIT_NAME	=  0, Incident slit
*SLIT_NAME	=  1, Receiving slit # 1
*SLIT_NAME	=  2, Receiving slit # 2
*COUNTER	=  D/teX Ultra 250, 0
*POS_FORMAT	=  0
*SCAN_AXIS	=  2Theta/Omega
*MEAS_MODE	=  Continuous Scanning
*TARGET		=  29
*XRAY_CHAR	=  K-ALPHA1
*WAVE_LENGTH1	=  1.54059
*WAVE_LENGTH2	=  1.54441
*THICKNESS	=  0, 0.000000
*MU		=  0, 0.000000
*SCAN_MODE	=  2Theta/Omega
*SPEED_DIM	=  sec./step
*XUNIT		=  deg.
*YUNIT		=  counts
*SCALE_MODE	=  1
*REP_COUNT	=  0
*SE_COUNT	=  0
*STD_MATERIAL	=  Unknown, Unknown, 0.000000, 0.000000, 0.000000, 0.000000, 0.000000, 0.000000
*LATT_CONS	=  0, Unknown, Unknown, 0.000000, 0.000000, 0.000000, 0.000000, 0.000000, 0.000000
*SEC_COUNT	=  1
*TSPEC_SIZE	=  0
*EXTRA_SIZE	=  0
*MEMO		=

*BEGIN
*GROUP		=  0
*START		=  0.4
*STOP		=  4.5
*STEP		=  0.01
*OFFSET		=  -0.008200
*SPEED		=  5.95853
*SLIT_SPEC	=  0, 1.000mm, 1, 0.000000
*SLIT_SPEC	=  1, 1.000mm, 1, 0.000000
*SLIT_SPEC	=  2, 1.000mm, 1, 0.000000
*KV		=  40
*MA		=  30
*LOW		=  0.000000
*HIGH		=  0.000000
*CTEMPER	=  0, 0.000000
*CTEMPER	=  1, 0.000000
*CTEMPER	=  2, 0.000000
*PAREX		=  0, 0.000000
*PAREX		=  1, 0.000000
*PAREX		=  2, 0.000000
*PAREX		=  3, 0.000000
*PAREX		=  4, 0.000000
*PAREX		=  5, 0.000000
*PAREX		=  6, 0.000000
*PAREX		=  7, 0.000000
*PAREX		=  8, 0.000000
*PAREX		=  9, 0.000000
*PAREX		=  10, 0.000000
*PAREX		=  11, 0.000000
*PAREX		=  12, 0.000000
*PAREX		=  13, 0.000000
*PAREX		=  14, 0.000000
*PAREX		=  15, 0.000000
*FULL_SCALE	=  156240
*INDEX		=  0, 0, 0
*COUNT		=  411
593320, 604835, 616782, 628314
639235, 648361, 660515, 669434
682079, 693084, 702769, 711353
720326, 729379, 735908, 746093
751859, 756329, 758870, 762642
760808, 758090, 752345, 747853
732819, 714362, 693532, 664485
627818, 587163, 535950, 484607
428299, 376303, 328348, 285533
247488, 216680, 189544, 166922
147381, 131973, 117321, 105007
94499, 86179.5, 77815.5, 70807
64536, 59349, 54305.5, 50020.5
46017.5, 42160.5, 39630.5, 36270.5
33850.5, 31069.5, 29060, 27257
25212, 23597, 21813, 20342.5
19312, 18007.5, 16895, 15579
14552.5, 13810, 13161.5, 12468
11610, 11000, 10340.5, 9840.5
9329.5, 8678, 8196.5, 7885
7643, 7067.5, 6749, 6427
6202, 5847, 5488, 5463
5223, 4976.5, 4682.5, 4621.5
4433.5, 4194, 4093, 3919.5
3905, 3703, 3679, 3486.5
3421.5, 3209.5, 3235.5, 3045.5
3205.5, 3034.5, 3000, 2859
2939.5, 2765, 2655.5, 2679.5
2646.5, 2614, 2516.5, 2489
2435.5, 2460, 2477.5, 2398.5
2373.5, 2392, 2332.5, 2341
2293.5, 2319, 2281.5, 2162
2214, 2186.5, 2220.5, 2140.5
2118, 2080.5, 2061, 2081
2031, 2074.5, 2110.5, 2008
2008.5, 2025.5, 2030, 2021
1992.5, 1985, 1946.5, 1908
1880.5, 1898.5, 1850, 1796.5
1818, 1900.5, 1893, 1798.5
1815, 1845.5, 1715, 1686.5
1759, 1716, 1718.5, 1741.5
1757.5, 1652, 1666, 1580
1623, 1621.5, 1604, 1577.5
1517.5, 1552.5, 1506.5, 1639
1552.5, 1480.5, 1432, 1429.5
1402.5, 1398.5, 1360.5, 1419
1377, 1295, 1297.5, 1382.5
1324.5, 1285.5, 1244.5, 1204.5
1223.5, 1202.5, 1187, 1195.5
1132, 1101, 1100.5, 1089.5
1111, 1086.5, 1053.5, 1034.5
1003, 999.999, 991.501, 921
936, 910.5, 933, 857.5
851, 877, 804, 752
816, 811.5, 770, 745.5
731, 680.5, 714.999, 701
693, 677.5, 635.5, 607.5
648, 602.5, 595, 590.5
578, 556.5, 533.5, 589.5
555, 466.001, 542.5, 514
458, 485.5, 521.5, 472
474.5, 380, 419.5, 369
413, 373, 364.5, 368.5
331, 347.5, 367.5, 357
329, 308.5, 301, 301.5
281, 272.5, 259.5, 249
244, 285, 229.5, 258.5
222, 231.5, 250, 228.5
208, 204.5, 198, 188
166, 147.5, 189.5, 181
168.5, 163.5, 175, 164
158, 166.5, 151.5, 149
134, 150, 163.5, 115.5
130, 129.5, 131, 117
107, 100, 111, 111
112, 108, 120, 113.5
79, 99.4999, 104, 96.5001
91, 74.9999, 83.5002, 82.4997
94.5002, 92.0001, 86.9999, 70.0001
101, 92, 82.4997, 67.5003
80.4999, 79, 91.5001, 68.4999
81, 62.5001, 47, 69.9999
75.4999, 80.5002, 55.4999, 87.4999
71, 75, 67.0001, 77.9999
80, 87.5001, 87.4999, 86.5001
65.5001, 80.9999, 76, 76.5001
83.4999, 60.0001, 81.4999, 64.5001
63, 87.4999, 93, 81.4998
77.5002, 72, 62.5001, 76.4999
62.9999, 85, 73.5002, 64.4999
92, 84.4999, 71.5001, 89.9999
93.5001, 97, 86.4999, 87.5002
84.4998, 104.5, 75.4999, 81.0001
79.9999, 65.5001, 92.5001, 76.5001
76.9998, 101.5, 80.5002, 73.4999
65.9998, 84.0001, 84.9999, 92.5003
91.4999, 90, 92, 90.4999
95.0001, 76.4998, 79.5001, 91
85.5001, 76.5001, 78, 80.9999
91.4999, 79.5001, 56.4999, 100.5
79.4999, 91.5001, 96, 96
85.0001, 112, 93.4999, 80.0001
95.4999, 96.9999, 60.5002
*END

*EOF