Folder: Analysis/XRD:XRR/STO/22147_STOL

File: 22147_STOL_XRD.csv
#twotheta, yobs, ycal, bkg, diff
42.0,13.0,1.0,1.0,1.0
42.05,20.5056,1.0,1.0,1.0
42.1,10.0,1.0,1.0,1.0
42.15,13.0,1.0,1.0,1.0
42.2,22.0,1.0,1.0,1.0
42.25,13.4833,1.0,1.0,1.0
42.3,16.0111,1.0,1.0,1.0
42.35,17.5056,1.0,1.0,1.0
42.4,10.0,1.0,1.0,1.0
42.45,12.5056,1.0,1.0,1.0
42.5,24.0,1.0,1.0,1.0
42.55,27.0,1.0,1.0,1.0
42.6,22.0,1.0,1.0,1.0
42.65,18.0,1.0,1.0,1.0
42.7,18.0111,1.0,1.0,1.0
42.75,29.0,1.0,1.0,1.0
42.8,27.0,1.0,1.0,1.0
42.85,23.4944,1.0,1.0,1.0
42.9,30.5167,1.0,1.0,1.0
42.95,26.9889,1.0,1.0,1.0
43.0,21.4944,1.0,1.0,1.0
43.05,20.0111,1.0,1.0,1.0
43.1,19.0,1.0,1.0,1.0
43.15,15.0,1.0,1.0,1.0
43.2,20.0,1.0,1.0,1.0
43.25,13.9889,1.0,1.0,1.0
43.3,11.4944,1.0,1.0,1.0
43.35,25.4944,1.0,1.0,1.0
43.4,21.0,1.0,1.0,1.0
43.45,19.4944,1.0,1.0,1.0
43.5,24.9889,1.0,1.0,1.0
43.55,22.5056,1.0,1.0,1.0
43.6,24.0,1.0,1.0,1.0
43.65,36.0,1.0,1.0,1.0
43.7,50.5056,1.0,1.0,1.0
43.75,23.0,1.0,1.0,1.0
43.8,47.5056,1.0,1.0,1.0
43.85,35.4944,1.0,1.0,1.0
43.9,57.9889,1.0,1.0,1.0
43.95,35.4944,1.0,1.0,1.0
44.0,43.5056,1.0,1.0,1.0
44.05,29.9889,1.0,1.0,1.0
44.1,50.4833,1.0,1.0,1.0
44.15,38.9778,1.0,1.0,1.0
44.2,32.4944,1.0,1.0,1.0
44.25,24.4944,1.0,1.0,1.0
44.3,32.4944,1.0,1.0,1.0
44.35,71.0111,1.0,1.0,1.0
44.4,78.0,1.0,1.0,1.0
44.45,92.4944,1.0,1.0,1.0
44.5,154.4833,1.0,1.0,1.0
44.55,174.5056,1.0,1.0,1.0
44.6,239.5056,1.0,1.0,1.0
44.65,263.4722,1.0,1.0,1.0
44.7,314.0222,1.0,1.0,1.0
44.75,403.4722,1.0,1.0,1.0
44.8,430.4833,1.0,1.0,1.0
44.85,514.4944,1.0,1.0,1.0
44.9,583.0111,1.0,1.0,1.0
44.95,659.4944,1.0,1.0,1.0
45.0,705.4944,1.0,1.0,1.0
45.05,735.4944,1.0,1.0,1.0
45.1,819.5167,1.0,1.0,1.0
45.15,836.0222,1.0,1.0,1.0
45.2,817.4611,1.0,1.0,1.0
45.25,821.0222,1.0,1.0,1.0
45.3,890.0222,1.0,1.0,1.0
45.35,909.4833,1.0,1.0,1.0
45.4,834.5278,1.0,1.0,1.0
45.45,838.9445,1.0,1.0,1.0
45.5,830.4611,1.0,1.0,1.0
45.55,801.5056,1.0,1.0,1.0
45.6,770.5167,1.0,1.0,1.0
45.65,721.55,1.0,1.0,1.0
45.7,679.4944,1.0,1.0,1.0
45.75,696.9556,1.0,1.0,1.0
45.8,566.55,1.0,1.0,1.0
45.85,590.5389,1.0,1.0,1.0
45.9,528.9889,1.0,1.0,1.0
45.95,535.0444,1.0,1.0,1.0
46.0,502.5278,1.0,1.0,1.0
46.05,470.4944,1.0,1.0,1.0
46.1,525.0,1.0,1.0,1.0
46.15,426.5167,1.0,1.0,1.0
46.2,434.9667,1.0,1.0,1.0
46.25,416.0333,1.0,1.0,1.0
46.3,366.5056,1.0,1.0,1.0
46.35,319.5056,1.0,1.0,1.0
46.4,326.5389,1.0,1.0,1.0
46.45,307.5056,1.0,1.0,1.0
46.5,238.5056,1.0,1.0,1.0
46.55,262.5056,1.0,1.0,1.0
46.6,218.0111,1.0,1.0,1.0
46.65,184.0,1.0,1.0,1.0
46.7,172.4944,1.0,1.0,1.0
46.75,169.0,1.0,1.0,1.0
46.8,131.5056,1.0,1.0,1.0
46.85,101.0111,1.0,1.0,1.0
46.9,128.0,1.0,1.0,1.0
46.95,101.5056,1.0,1.0,1.0
47.0,111.0,1.0,1.0,1.0
47.05,111.5056,1.0,1.0,1.0
47.1,129.5167,1.0,1.0,1.0
47.15,130.4944,1.0,1.0,1.0
47.2,140.5056,1.0,1.0,1.0
47.25,181.4833,1.0,1.0,1.0
47.3,217.0333,1.0,1.0,1.0
47.35,261.0444,1.0,1.0,1.0
47.4,279.9889,1.0,1.0,1.0
47.45,353.5389,1.0,1.0,1.0
47.5,372.5278,1.0,1.0,1.0
47.55,491.9778,1.0,1.0,1.0
47.6,601.0222,1.0,1.0,1.0
47.65,865.5056,1.0,1.0,1.0
47.7,1345.54,1.0,1.0,1.0
47.75,2806.08,1.0,1.0,1.0
47.8,7264.73,1.0,1.0,1.0
47.85,39917.4,1.0,1.0,1.0
47.9,3359877.75,1.0,1.0,1.0
47.95,5214339.0,1.0,1.0,1.0
48.0,336180.125,1.0,1.0,1.0
48.05,41635.4,1.0,1.0,1.0
48.1,10451,1.0,1.0,1.0
48.15,3828.57,1.0,1.0,1.0
48.2,1758.52,1.0,1.0,1.0
48.25,933.0778,1.0,1.0,1.0
48.3,581.5278,1.0,1.0,1.0
48.35,390.4833,1.0,1.0,1.0
48.4,302.9778,1.0,1.0,1.0
48.45,222.0444,1.0,1.0,1.0
48.5,152.0,1.0,1.0,1.0
48.55,130.4833,1.0,1.0,1.0
48.6,108.0,1.0,1.0,1.0
48.65,90.5056,1.0,1.0,1.0
48.7,80.0,1.0,1.0,1.0
48.75,85.5056,1.0,1.0,1.0
48.8,63.5056,1.0,1.0,1.0
48.85,77.4944,1.0,1.0,1.0
48.9,51.4944,1.0,1.0,1.0
48.95,47.5056,1.0,1.0,1.0
49.0,34.5056,1.0,1.0,1.0
49.05,38.0,1.0,1.0,1.0
49.1,37.4944,1.0,1.0,1.0
49.15,45.0,1.0,1.0,1.0
49.2,25.4944,1.0,1.0,1.0
49.25,29.4944,1.0,1.0,1.0
49.3,22.5056,1.0,1.0,1.0
49.35,19.0,1.0,1.0,1.0
49.4,19.0,1.0,1.0,1.0
49.45,27.0,1.0,1.0,1.0
49.5,28.0,1.0,1.0,1.0
49.55,17.0,1.0,1.0,1.0
49.6,20.0,1.0,1.0,1.0
49.65,8.5056,1.0,1.0,1.0
49.7,18.0,1.0,1.0,1.0
49.75,9.4944,1.0,1.0,1.0
49.8,14.0,1.0,1.0,1.0
49.85,20.4944,1.0,1.0,1.0
49.9,22.0,1.0,1.0,1.0
49.95,22.0,1.0,1.0,1.0
50.0,21.5056,1.0,1.0,1.0
50.05,11.0,1.0,1.0,1.0
50.1,11.0,1.0,1.0,1.0
50.15,23.0,1.0,1.0,1.0
50.2,14.0,1.0,1.0,1.0
50.25,10.0,1.0,1.0,1.0
50.3,15.0,1.0,1.0,1.0
50.35,15.0,1.0,1.0,1.0
50.4,23.0,1.0,1.0,1.0
50.45,32.0111,1.0,1.0,1.0
50.5,14.5056,1.0,1.0,1.0
50.55,11.0,1.0,1.0,1.0
50.6,11.0111,1.0,1.0,1.0
50.65,8.4944,1.0,1.0,1.0
50.7,12.0,1.0,1.0,1.0
50.75,12.0,1.0,1.0,1.0
50.8,15.0,1.0,1.0,1.0
50.85,15.0,1.0,1.0,1.0
50.9,10.0,1.0,1.0,1.0
50.95,21.4944,1.0,1.0,1.0
51.0,19.0,1.0,1.0,1.0
51.05,16.0,1.0,1.0,1.0
51.1,16.0,1.0,1.0,1.0
51.15,11.0111,1.0,1.0,1.0
51.2,10.5056,1.0,1.0,1.0
51.25,15.0,1.0,1.0,1.0
51.3,18.5056,1.0,1.0,1.0
51.35,10.4944,1.0,1.0,1.0
51.4,19.4944,1.0,1.0,1.0
51.45,16.0,1.0,1.0,1.0
51.5,11.0,1.0,1.0,1.0
51.55,9.0,1.0,1.0,1.0
51.6,11.0,1.0,1.0,1.0
51.65,19.4944,1.0,1.0,1.0
51.7,11.0,1.0,1.0,1.0
51.75,7.0,1.0,1.0,1.0
51.8,18.0,1.0,1.0,1.0
51.85,13.0,1.0,1.0,1.0
51.9,8.0,1.0,1.0,1.0
51.95,15.0,1.0,1.0,1.0
52.0,15.0,1.0,1.0,1.0
0.44,2307353.5,1.0,1.0,1.0
0.49,2328564.0,1.0,1.0,1.0
0.54,2027597.125,1.0,1.0,1.0
0.59,1148295.75,1.0,1.0,1.0
0.64,429409,1.0,1.0,1.0
0.69,177785,1.0,1.0,1.0
0.74,119510.0,1.0,1.0,1.0
0.79,108903.0,1.0,1.0,1.0
0.84,107755.0,1.0,1.0,1.0
0.89,102712,1.0,1.0,1.0
0.94,91027,1.0,1.0,1.0
0.99,76334.0,1.0,1.0,1.0
1.04,59859,1.0,1.0,1.0
1.09,44533,1.0,1.0,1.0
1.14,32347.5,1.0,1.0,1.0
1.19,22423.5,1.0,1.0,1.0
1.24,15545.5,1.0,1.0,1.0
1.29,11146.5,1.0,1.0,1.0
1.34,9197.501,1.0,1.0,1.0
1.39,8457.5,1.0,1.0,1.0
1.44,8750.501,1.0,1.0,1.0
1.49,9248.001,1.0,1.0,1.0
1.54,9661.5,1.0,1.0,1.0
1.59,9887.0,1.0,1.0,1.0
1.64,9868.001,1.0,1.0,1.0
1.69,9373.5,1.0,1.0,1.0
1.74,8457,1.0,1.0,1.0
1.79,7264.999,1.0,1.0,1.0
1.84,6089.499,1.0,1.0,1.0
1.89,4813,1.0,1.0,1.0
1.94,3487,1.0,1.0,1.0
1.99,2699,1.0,1.0,1.0
2.04,2045,1.0,1.0,1.0
2.09,1687.5,1.0,1.0,1.0
2.14,1436,1.0,1.0,1.0
2.19,1498,1.0,1.0,1.0
2.24,1546.5,1.0,1.0,1.0
2.29,1677.5,1.0,1.0,1.0
2.34,1951.5,1.0,1.0,1.0
2.39,2040,1.0,1.0,1.0
2.44,1977.0,1.0,1.0,1.0
2.49,1990,1.0,1.0,1.0
2.54,1896,1.0,1.0,1.0
2.59,1827.5,1.0,1.0,1.0
2.64,1533.5,1.0,1.0,1.0
2.69,1299,1.0,1.0,1.0
2.74,1065,1.0,1.0,1.0
2.79,855.9996,1.0,1.0,1.0
2.84,722.5002,1.0,1.0,1.0
2.89,623.5002,1.0,1.0,1.0
2.94,550.9999,1.0,1.0,1.0
2.99,513.4998,1.0,1.0,1.0
3.04,520.0002,1.0,1.0,1.0
3.09,543.0003,1.0,1.0,1.0
3.14,595.0003,1.0,1.0,1.0
3.19,673.5005,1.0,1.0,1.0
3.24,677.5002,1.0,1.0,1.0
3.29,690.4993,1.0,1.0,1.0
3.34,720.4999,1.0,1.0,1.0
3.39,700.5004,1.0,1.0,1.0
3.44,719.9996,1.0,1.0,1.0
3.49,576.5005,1.0,1.0,1.0
3.54,564.4999,1.0,1.0,1.0
3.59,487.0002,1.0,1.0,1.0
3.64,440.0003,1.0,1.0,1.0
3.69,351.0,1.0,1.0,1.0
3.74,317.5001,1.0,1.0,1.0
3.79,328.9999,1.0,1.0,1.0
3.84,297.4998,1.0,1.0,1.0
3.89,310.9999,1.0,1.0,1.0
3.94,308.9998,1.0,1.0,1.0
3.99,309.0003,1.0,1.0,1.0
4.04,394.0001,1.0,1.0,1.0
4.09,350.4995,1.0,1.0,1.0
4.14,349.4997,1.0,1.0,1.0
4.19,416.4999,1.0,1.0,1.0
4.24,375.0,1.0,1.0,1.0
4.29,339.0,1.0,1.0,1.0
4.34,347.0001,1.0,1.0,1.0
4.39,345.4999,1.0,1.0,1.0
4.44,302.9999,1.0,1.0,1.0
4.49,283.0,1.0,1.0,1.0
4.5,282.4998,1.0,1.0,1.0

File: 22147_STOL_XRD_2-Theta_Omega.asc
*TYPE		=  Raw
*CLASS		=  ASCII CLASS
*SAMPLE		=
*COMMENT	=
*FNAME		=  22147_STOL_XRD_2-Theta_Omega.asc
*DATE		=  05-Oct-22 03:15

*GROUP_COUNT	=  1
*GONIO		=  SmartLab(In-plane), 0.000000
*ATTACHMENT	=  Z-Phi Stage
*ASC		=  0, 0, 0.000000, 0.000000
*I_MONOCHRO	=  Ge(220)x2, 0.000000
*FILTER		=  None
*C_MONOCHRO	=  None, 0.000000
*SLIT_NAME	=  0, Incident slit
*SLIT_NAME	=  1, Receiving slit # 1
*SLIT_NAME	=  2, Receiving slit # 2
*COUNTER	=  D/teX Ultra 250, 0
*POS_FORMAT	=  0
*SCAN_AXIS	=  2Theta/Omega
*MEAS_MODE	=  Continuous Scanning
*TARGET		=  29
*XRAY_CHAR	=  K-ALPHA1
*WAVE_LENGTH1	=  1.54059
*WAVE_LENGTH2	=  1.54441
*THICKNESS	=  0, 0.000000
*MU		=  0, 0.000000
*SCAN_MODE	=  2Theta/Omega
*SPEED_DIM	=  sec./step
*XUNIT		=  deg.
*YUNIT		=  counts
*SCALE_MODE	=  1
*REP_COUNT	=  0
*SE_COUNT	=  0
*STD_MATERIAL	=  Unknown, Unknown, 0.000000, 0.000000, 0.000000, 0.000000, 0.000000, 0.000000
*LATT_CONS	=  0, Unknown, Unknown, 0.000000, 0.000000, 0.000000, 0.000000, 0.000000, 0.000000
*SEC_COUNT	=  2
*TSPEC_SIZE	=  0
*EXTRA_SIZE	=  0
*MEMO		=

*BEGIN
*GROUP		=  0
*START		=  42
*STOP		=  52
*STEP		=  0.01
*OFFSET		=  0.0526
*SPEED		=  23.9588
*SLIT_SPEC	=  0, 0.400mm, 0.4, 0.000000
*SLIT_SPEC	=  1, 0.400mm, 0.4, 0.000000
*SLIT_SPEC	=  2, 0.400mm, 0.4, 0.000000
*KV		=  40
*MA		=  30
*LOW		=  0.000000
*HIGH		=  0.000000
*CTEMPER	=  0, 0.000000
*CTEMPER	=  1, 0.000000
*CTEMPER	=  2, 0.000000
*PAREX		=  0, 0.000000
*PAREX		=  1, 0.000000
*PAREX		=  2, 0.000000
*PAREX		=  3, 0.000000
*PAREX		=  4, 0.000000
*PAREX		=  5, 0.000000
*PAREX		=  6, 0.000000
*PAREX		=  7, 0.000000
*PAREX		=  8, 0.000000
*PAREX		=  9, 0.000000
*PAREX		=  10, 0.000000
*PAREX		=  11, 0.000000
*PAREX		=  12, 0.000000
*PAREX		=  13, 0.000000
*PAREX		=  14, 0.000000
*PAREX		=  15, 0.000000
*FULL_SCALE	=  501659
*INDEX		=  0, 0, 0
*COUNT		=  1001
13, 26.9889, 11.0111, 13
19.4944, 20.5056, 20, 15
21, 19, 10, 16.4944
24, 19.5056, 22.4944, 13
21.4944, 30.5056, 10.5056, 19
22, 17, 26.4944, 26
14.5056, 13.4833, 16.5167, 27
9, 30.9889, 16.0111, 13
9, 24, 32.4944, 17.5056
22, 23.4944, 19.5056, 10
10, 27, 26, 19.4944
22, 12.5056, 21, 18
24, 17, 24, 19
20, 7.49445, 10.5056, 27
8, 21, 22.4944, 11.5056
22, 15, 18.4944, 11.5056
19, 18, 25.4944, 16
20.4944, 27, 18.0111, 24
18.4944, 15.5056, 32, 29
10, 20, 13.4944, 28
27, 12.5056, 28, 18
20, 23.4944, 30.5056, 31.9889
21, 6.49445, 30.5167, 31
26, 22, 14, 26.9889
24.0111, 32.9889, 21.0111, 19
21.4944, 18, 25, 27
22.4944, 20.0111, 21.9889, 37.0111
13.9889, 23.0111, 19, 26.4944
28.5056, 11, 13.4944, 15
13.5056, 6, 20.4944, 13.5056
20, 8, 16, 22
19, 13.9889, 20.0111, 17
13, 32, 11.4944, 13
25, 15, 21, 25.4944
15.0111, 22.9889, 11.0111, 17
21, 13, 25.4944, 26.5056
28, 19.4944, 29, 22.5056
28, 18, 24.9889, 49.5056
32, 33.5056, 39.4944, 22.5056
41.4833, 26.0111, 23.5056, 37
24, 38, 33.4944, 27.4944
33.5056, 36, 30.5056, 31
28.4944, 54, 50.5056, 51.4944
52.9889, 42.5167, 32.4944, 23
39, 36.5056, 37.9889, 39
47.5056, 29.5056, 34.9889, 38.0111
40, 35.4944, 40.5056, 42.4944
42.5056, 63.4944, 57.9889, 41.5167
40, 50.4944, 40, 35.4944
31.5056, 33.5056, 35, 36.4944
43.5056, 37.4944, 33, 36
49.4944, 29.9889, 43.0222, 45
29.4944, 34.5056, 50.4833, 34.0111
39, 32.5056, 23, 38.9778
33.5167, 59.5056, 24.4944, 37.5056
32.4944, 42.5056, 41.9889, 50.5056
50.5056, 24.4944, 38, 46.5056
45, 54, 32.4944, 35
46, 62, 61.4944, 71.0111
75, 86, 49.4944, 69.5056
78, 75.9889, 84.5056, 106.494
99.0111, 92.4944, 109.989, 100.989
109.528, 107.989, 154.483, 149.022
128, 161.483, 168, 174.506
221.472, 174.539, 200.472, 255.506
239.506, 224.494, 261, 278.978
255.033, 263.472, 300, 282.506
283, 345.483, 314.022, 345.494
338.506, 373.494, 403, 403.472
393.539, 437.494, 443.494, 422
430.483, 430.461, 486.044, 466.506
516.989, 514.494, 487.494, 541.506
510.022, 519.461, 583.011, 596.978
609.044, 593.967, 605.517, 659.494
604.483, 658.472, 642.067, 606.472
705.494, 713.967, 762.011, 732.022
748, 735.494, 785.506, 779.989
778.45, 831.528, 819.517, 735.506
818.011, 785.439, 801.528, 836.022
843.011, 823.539, 841.944, 899.033
817.461, 818.494, 864.033, 847.978
851.978, 821.022, 876.494, 905.978
806.506, 894.022, 890.022, 835.506
872.506, 885.944, 855.011, 909.483
941.011, 840.011, 861.022, 837.956
834.528, 851.967, 838.572, 883.461
819.022, 838.944, 845.033, 848.472
844.022, 788.033, 830.461, 800.506
874.483, 841.528, 788.506, 801.506
800.011, 826.989, 736.967, 723.022
770.517, 727.528, 716.967, 796
778.956, 721.55, 748.517, 686.967
677.494, 685.056, 679.494, 709.956
688.494, 656.55, 648.494, 696.956
614.044, 637.461, 578.033, 610.45
566.55, 601.506, 571.483, 616.011
582.439, 590.539, 613.517, 637
563.011, 593.989, 528.989, 503
596.506, 553.517, 491.978, 535.044
502.472, 468.967, 543.539, 536.989
502.528, 510.989, 449.011, 493
430.989, 470.494, 496.022, 476.472
503.989, 426.022, 525, 431
461.506, 399, 470.483, 426.517
431.517, 456.45, 423.056, 443
434.967, 400.506, 418.506, 374
400, 416.033, 370.461, 384.506
391.494, 337.494, 366.506, 339.494
367.528, 362.506, 340.978, 319.506
306.528, 342.428, 322.528, 332.989
326.539, 340.967, 297.033, 316.978
361.506, 307.506, 327.506, 306.956
300.011, 275.044, 238.506, 270.989
258.978, 279.506, 252.011, 262.506
275.011, 231.978, 249.989, 241.528
218.011, 221.989, 234.989, 190
236.011, 184, 181.989, 185
196.011, 168.506, 172.494, 175
164.494, 162, 161, 169
157.506, 136, 145.494, 134.517
131.506, 127.494, 154.483, 141.011
115.989, 101.011, 118.989, 126.011
110.989, 118.517, 128, 124.494
104.494, 109.011, 88.4944, 101.506
102.506, 108.483, 95.0111, 74.5056
111, 122.978, 109.022, 116.483
117.506, 111.506, 118.978, 111.011
141.506, 136.989, 129.517, 130
124.494, 133.494, 155, 130.494
146.011, 165.494, 163, 145.483
140.506, 157.517, 163.472, 185.022
151.506, 181.483, 208.517, 197.989
223.011, 191.967, 217.033, 239
251.483, 256.472, 211.506, 261.044
253.506, 251.978, 266.506, 274.494
279.989, 300.989, 281.517, 288.494
301.483, 353.539, 301.989, 317.989
342.494, 356.472, 372.528, 365.494
437, 430, 401.011, 491.978
514.978, 520.044, 529.967, 509.483
601.022, 649.956, 714.517, 762.483
857, 865.506, 953.033, 1062.45
1120.98, 1260.96, 1345.54, 1531.49
1766.94, 2029.47, 2402.42, 2806.08
3233.38, 3969.82, 4798.96, 5851.92
7264.73, 9577.79, 12829.6, 17131.8
25046, 39917.4, 70545, 200847
929001, 2178212, 3359877.8, 4782977.5
5410336, 4809442.5, 5230170.5, 5214339
6905054, 7980476.5, 3199748.3, 1110036.5
336180, 172794, 117052, 82008.8
57871.7, 41635.4, 30378.1, 22604.8
17384.6, 13195.1, 10451, 8255.61
6718.77, 5506.52, 4424.69, 3828.57
3185.99, 2665.04, 2329.01, 2065.53
1758.52, 1553.55, 1348.51, 1194.03
1096.46, 933.078, 806.978, 763.011
650.022, 621.989, 581.528, 535.989
503.472, 420.517, 525.517, 390.483
365.506, 326.528, 313.483, 297.517
302.978, 280.022, 241.483, 242.022
214.967, 222.044, 228.483, 165.011
182.506, 148, 152, 160
156.506, 154.494, 142, 130.483
121.011, 111, 119, 139.506
108, 78.4833, 133.022, 106.483
104, 90.5056, 82.5167, 91
84.9889, 77.4944, 80, 101.011
77.5056, 68, 76.9889, 85.5056
65, 56, 51.5056, 83.4944
63.5056, 66.4833, 69.0111, 85.9889
57.0111, 77.4944, 55.0111, 38.4833
47.0111, 57, 51.4944, 57.5056
28.5056, 58, 48.9889, 47.5056
51.5056, 45.4944, 37.5056, 43.9889
34.5056, 59.5056, 48.4944, 31.4944
39.5056, 38, 32, 40.5056
22, 33.4944, 37.4944, 35.0111
15, 50.9778, 40.0111, 45
[...]
18, 11, 19, 22
18, 13, 7, 8
8, 9, 8, 8
6, 11.4944, 22.5056, 15
12, 9, 5, 10
15
*END

*BEGIN
*GROUP		=  0
*START		=  0.4
*STOP		=  4.5
*STEP		=  0.01
*OFFSET		=  0.0525
*SPEED		=  20.6484
*SLIT_SPEC	=  0, 1.000mm, 1, 0.000000
*SLIT_SPEC	=  1, 1.000mm, 1, 0.000000
*SLIT_SPEC	=  2, 1.000mm, 1, 0.000000
*KV		=  40
*MA		=  30
*LOW		=  0.000000
*HIGH		=  0.000000
*CTEMPER	=  0, 0.000000
*CTEMPER	=  1, 0.000000
*CTEMPER	=  2, 0.000000
*PAREX		=  0, 0.000000
*PAREX		=  1, 0.000000
*PAREX		=  2, 0.000000
*PAREX		=  3, 0.000000
*PAREX		=  4, 0.000000
*PAREX		=  5, 0.000000
*PAREX		=  6, 0.000000
*PAREX		=  7, 0.000000
*PAREX		=  8, 0.000000
*PAREX		=  9, 0.000000
*PAREX		=  10, 0.000000
*PAREX		=  11, 0.000000
*PAREX		=  12, 0.000000
*PAREX		=  13, 0.000000
*PAREX		=  14, 0.000000
*PAREX		=  15, 0.000000
*FULL_SCALE	=  137287
*INDEX		=  0, 0, 0
*COUNT		=  411
2209187.5, 2236121, 2263551.5, 2285906.5
2307353.5, 2322589, 2336210, 2340791.5
2341027, 2328564, 2306567.5, 2270228
2215853.5, 2136452, 2027597.1, 1888817.6
1719939.8, 1536505.3, 1341549.8, 1148295.8
966077, 800318, 654928, 532075
429409, 348819, 286615, 239436
204556, 177785, 158531, 144818
134286, 125967, 119510, 114997
112803, 109807, 109199, 108903
108759, 108773, 108232, 108664
107755, 106983, 106447, 105402
103506, 102712, 100557, 98393.5
96204, 93906, 91027, 88144.5
84741.5, 81886.5, 78971, 76334
73359.5, 69613, 66631, 63281.5
59859, 56755.5, 54086, 51296
47774.5, 44533, 42558.5, 39612.5
37038.5, 34454.5, 32347.5, 30057.5
27955, 26031.5, 24382.5, 22423.5
20658.5, 19760, 17904, 16674.5
15545.5, 14420.5, 13199.5, 12729
12012, 11146.5, 10884.5, 9963
9665, 9189, 9197.5, 8644.5
8657.5, 8492, 8411.5, 8457.5
8351.5, 8470.5, 8472.5, 8507
8750.5, 8805.5, 9001.5, 9042
9039.5, 9248, 9213.5, 9549.5
9602.5, 9505.5, 9661.5, 10049.5
9994, 10123.5, 9939.5, 9887
9811, 9942, 10064, 10043
9868, 9920.5, 9916.5, 9671.5
9607.5, 9373.5, 9261, 9061.5
8882, 8746.5, 8457, 8269.5
7916.5, 7768, 7559, 7265
6990.5, 6750, 6514, 6239.5
6089.5, 5595, 5491.5, 5185
4940, 4813, 4493, 4226.5
3968.5, 3788, 3487, 3404
3265.5, 3005, 2831, 2699
2654, 2485, 2260.5, 2114.5
2045, 1925, 1886, 1724.5
1677.5, 1687.5, 1685, 1590.5
1539, 1479, 1436, 1477
1463.5, 1459.5, 1522.5, 1498
1514, 1440, 1466, 1554
1546.5, 1682.5, 1626, 1739.5
1710.5, 1677.5, 1780.5, 1908.5
1849.5, 1950.5, 1951.5, 1991
1914, 1984, 1971.5, 2040
1960, 2054, 2057.5, 2035
1977, 2126.5, 2015.5, 2041.5
2059, 1990, 2104.5, 1907.5
1975.5, 1937, 1896, 1914
1959, 1818.5, 1806, 1827.5
1663.5, 1661, 1541, 1476.5
1533.5, 1474.5, 1379.5, 1391
1408, 1299, 1179, 1196
1145.5, 1125, 1065, 998
1020.5, 911.5, 973.001, 856
906.5, 799, 796.001, 712.5
722.5, 684.499, 667.5, 592
601, 623.5, 516.5, 615.5
513.5, 542.5, 551, 517
515, 487, 537, 513.5
478.5, 558.001, 527, 525.999
520, 506, 526.5, 586.5
554, 543, 614, 503.5
557, 595, 595, 614
634.999, 599, 649.5, 673.5
614, 632.5, 694.5, 695.5
677.5, 658, 667, 695.5
696.5, 690.499, 727.5, 717
652, 744, 720.5, 705
751, 719.5, 736.5, 700.5
639, 635.5, 645, 662.5
720, 614, 615.5, 595
602, 576.5, 617.5, 584
612.5, 568.5, 564.5, 504
528, 527.5, 499, 487
457.5, 460, 448.5, 466.5
440, 388, 386, 356
365, 351, 356, 329
350.5, 321, 317.5, 314.5
306, 326, 323, 329
284, 286.5, 311.5, 263
297.5, 240, 305.5, 306.5
304.5, 311, 279.5, 297.5
274, 302.5, 309, 342.5
332.5, 321.5, 282.5, 309
317, 349.5, 361.5, 334.999
394, 368, 361, 368
331.5, 350.5, 414, 384.5
393.5, 337.5, 349.5, 377
359.5, 376.5, 378, 416.5
356.5, 374.5, 374.5, 351.5
375, 371, 369.5, 380
359.5, 339, 350.5, 342
329, 307.5, 347, 365.5
350.5, 298, 334.5, 345.5
330.5, 322.5, 296, 335.5
303, 291.5, 291.5, 261
294, 283, 282.5
*END

*EOF

File: 22147_STOL_XRD_2.csv
#twotheta, yobs, ycal, bkg, diff
42.0,10.4944,1.0,1.0,1.0
42.04,8.0,1.0,1.0,1.0
42.08,8.0,1.0,1.0,1.0
42.12,15.0111,1.0,1.0,1.0
42.16,14.0,1.0,1.0,1.0
42.2,10.0,1.0,1.0,1.0
42.24,8.0,1.0,1.0,1.0
42.28,13.0,1.0,1.0,1.0
42.32,10.0,1.0,1.0,1.0
42.36,6.0,1.0,1.0,1.0
42.4,22.4944,1.0,1.0,1.0
42.44,10.0,1.0,1.0,1.0
42.48,6.0,1.0,1.0,1.0
42.52,6.0,1.0,1.0,1.0
42.56,6.5056,1.0,1.0,1.0
42.6,9.0,1.0,1.0,1.0
42.64,5.0,1.0,1.0,1.0
42.68,16.0,1.0,1.0,1.0
42.72,8.5056,1.0,1.0,1.0
42.76,24.5056,1.0,1.0,1.0
42.8,23.0,1.0,1.0,1.0
42.84,17.0,1.0,1.0,1.0
42.88,7.0,1.0,1.0,1.0
42.92,15.0,1.0,1.0,1.0
42.96,14.0,1.0,1.0,1.0
43.0,12.0,1.0,1.0,1.0
43.04,18.0,1.0,1.0,1.0
43.08,18.0,1.0,1.0,1.0
43.12,20.4944,1.0,1.0,1.0
43.16,13.0,1.0,1.0,1.0
43.2,15.0,1.0,1.0,1.0
43.24,14.0,1.0,1.0,1.0
43.28,8.4944,1.0,1.0,1.0
43.32,9.5056,1.0,1.0,1.0
43.36,7.5056,1.0,1.0,1.0
43.4,2.0,1.0,1.0,1.0
43.44,7.5056,1.0,1.0,1.0
43.48,15.9889,1.0,1.0,1.0
43.52,16.0,1.0,1.0,1.0
43.56,28.5056,1.0,1.0,1.0
43.6,18.5056,1.0,1.0,1.0
43.64,24.0,1.0,1.0,1.0
43.68,18.4944,1.0,1.0,1.0
43.72,16.0,1.0,1.0,1.0
43.76,31.0,1.0,1.0,1.0
43.8,30.5167,1.0,1.0,1.0
43.84,35.5056,1.0,1.0,1.0
43.88,50.4944,1.0,1.0,1.0
43.92,39.0,1.0,1.0,1.0
43.96,38.0111,1.0,1.0,1.0
44.0,52.0,1.0,1.0,1.0
44.04,32.0,1.0,1.0,1.0
44.08,40.0,1.0,1.0,1.0
44.12,24.0,1.0,1.0,1.0
44.16,40.5056,1.0,1.0,1.0
44.2,41.5056,1.0,1.0,1.0
44.24,32.4944,1.0,1.0,1.0
44.28,39.5056,1.0,1.0,1.0
44.32,36.9889,1.0,1.0,1.0
44.36,44.0,1.0,1.0,1.0
44.4,79.5056,1.0,1.0,1.0
44.44,84.5167,1.0,1.0,1.0
44.48,116.5056,1.0,1.0,1.0
44.52,148.0,1.0,1.0,1.0
44.56,157.0,1.0,1.0,1.0
44.6,206.0111,1.0,1.0,1.0
44.64,208.0222,1.0,1.0,1.0
44.68,278.5056,1.0,1.0,1.0
44.72,326.4944,1.0,1.0,1.0
44.76,422.9889,1.0,1.0,1.0
44.8,448.0333,1.0,1.0,1.0
44.84,524.5278,1.0,1.0,1.0
44.88,631.5167,1.0,1.0,1.0
44.92,597.5167,1.0,1.0,1.0
44.96,716.5389,1.0,1.0,1.0
45.0,786.0222,1.0,1.0,1.0
45.04,821.4833,1.0,1.0,1.0
45.08,903.0111,1.0,1.0,1.0
45.12,1012.47,1.0,1.0,1.0
45.16,1039.92,1.0,1.0,1.0
45.2,1077.97,1.0,1.0,1.0
45.24,1062.54,1.0,1.0,1.0
45.28,1062.96,1.0,1.0,1.0
45.32,1061.98,1.0,1.0,1.0
45.36,1057.49,1.0,1.0,1.0
45.4,1086.54,1.0,1.0,1.0
45.44,1094.99,1.0,1.0,1.0
45.48,1046.04,1.0,1.0,1.0
45.52,1057.43,1.0,1.0,1.0
45.56,1023.98,1.0,1.0,1.0
45.6,986.4833,1.0,1.0,1.0
45.64,937.55,1.0,1.0,1.0
45.68,890.4944,1.0,1.0,1.0
45.72,857.0111,1.0,1.0,1.0
45.76,858.5056,1.0,1.0,1.0
45.8,773.4611,1.0,1.0,1.0
45.84,763.4944,1.0,1.0,1.0
45.88,715.9778,1.0,1.0,1.0
45.92,682.4722,1.0,1.0,1.0
45.96,622.0111,1.0,1.0,1.0
46.0,645.4944,1.0,1.0,1.0
46.04,626.4944,1.0,1.0,1.0
46.08,578.5167,1.0,1.0,1.0
46.12,592.0,1.0,1.0,1.0
46.16,534.5056,1.0,1.0,1.0
46.2,511.5167,1.0,1.0,1.0
46.24,456.4833,1.0,1.0,1.0
46.28,428.5056,1.0,1.0,1.0
46.32,455.0444,1.0,1.0,1.0
46.36,459.0222,1.0,1.0,1.0
46.4,410.0222,1.0,1.0,1.0
46.44,345.9889,1.0,1.0,1.0
46.48,356.0222,1.0,1.0,1.0
46.52,282.4833,1.0,1.0,1.0
46.56,301.4833,1.0,1.0,1.0
46.6,275.0111,1.0,1.0,1.0
46.64,259.9667,1.0,1.0,1.0
46.68,205.5167,1.0,1.0,1.0
46.72,186.9889,1.0,1.0,1.0
46.76,192.4944,1.0,1.0,1.0
46.8,152.0222,1.0,1.0,1.0
46.84,168.0,1.0,1.0,1.0
46.88,150.0,1.0,1.0,1.0
46.92,105.5056,1.0,1.0,1.0
46.96,103.4833,1.0,1.0,1.0
47.0,91.0111,1.0,1.0,1.0
47.04,126.9889,1.0,1.0,1.0
47.08,144.0,1.0,1.0,1.0
47.12,121.9778,1.0,1.0,1.0
47.16,138.0222,1.0,1.0,1.0
47.2,168.0111,1.0,1.0,1.0
47.24,218.5056,1.0,1.0,1.0
47.28,221.5167,1.0,1.0,1.0
47.32,247.4944,1.0,1.0,1.0
47.36,287.9667,1.0,1.0,1.0
47.4,311.0,1.0,1.0,1.0
47.44,307.4722,1.0,1.0,1.0
47.48,353.9889,1.0,1.0,1.0
47.52,425.9556,1.0,1.0,1.0
47.56,510.0222,1.0,1.0,1.0
47.6,595.0222,1.0,1.0,1.0
47.64,780.9778,1.0,1.0,1.0
47.68,1013.93,1.0,1.0,1.0
47.72,1548.39,1.0,1.0,1.0
47.76,2535.94,1.0,1.0,1.0
47.8,4771.84,1.0,1.0,1.0
47.84,11810.6,1.0,1.0,1.0
47.88,41369.5,1.0,1.0,1.0
47.92,489065,1.0,1.0,1.0
47.96,4593614.0,1.0,1.0,1.0
48.0,8011028.5,1.0,1.0,1.0
48.04,3050854.75,1.0,1.0,1.0
48.08,76678.5,1.0,1.0,1.0
48.12,17586.5,1.0,1.0,1.0
48.16,6880.74,1.0,1.0,1.0
48.2,3526.47,1.0,1.0,1.0
48.24,1827.02,1.0,1.0,1.0
48.28,1137.0,1.0,1.0,1.0
48.32,682.45,1.0,1.0,1.0
48.36,524.9556,1.0,1.0,1.0
48.4,387.4944,1.0,1.0,1.0
48.44,282.5056,1.0,1.0,1.0
48.48,243.5056,1.0,1.0,1.0
48.52,196.9889,1.0,1.0,1.0
48.56,155.0,1.0,1.0,1.0
48.6,146.5056,1.0,1.0,1.0
48.64,122.5056,1.0,1.0,1.0
48.68,74.4833,1.0,1.0,1.0
48.72,87.4833,1.0,1.0,1.0
48.76,68.5167,1.0,1.0,1.0
48.8,59.0,1.0,1.0,1.0
48.84,59.9889,1.0,1.0,1.0
48.88,67.5056,1.0,1.0,1.0
48.92,74.4944,1.0,1.0,1.0
48.96,44.0,1.0,1.0,1.0
49.0,45.9889,1.0,1.0,1.0
49.04,33.0,1.0,1.0,1.0
49.08,35.5056,1.0,1.0,1.0
49.12,45.0111,1.0,1.0,1.0
49.16,20.0,1.0,1.0,1.0
49.2,34.5167,1.0,1.0,1.0
49.24,21.5056,1.0,1.0,1.0
49.28,22.5056,1.0,1.0,1.0
49.32,39.4944,1.0,1.0,1.0
49.36,17.0,1.0,1.0,1.0
49.4,8.4944,1.0,1.0,1.0
49.44,25.0111,1.0,1.0,1.0
49.48,22.5056,1.0,1.0,1.0
49.52,29.9889,1.0,1.0,1.0
49.56,15.0,1.0,1.0,1.0
49.6,17.4944,1.0,1.0,1.0
49.64,9.5056,1.0,1.0,1.0
49.68,15.4944,1.0,1.0,1.0
49.72,23.0,1.0,1.0,1.0
49.76,17.0,1.0,1.0,1.0
49.8,16.0,1.0,1.0,1.0
49.84,12.0,1.0,1.0,1.0
49.88,21.0,1.0,1.0,1.0
49.92,14.0111,1.0,1.0,1.0
49.96,12.0111,1.0,1.0,1.0
50.0,11.5056,1.0,1.0,1.0
50.04,9.5056,1.0,1.0,1.0
50.08,12.0,1.0,1.0,1.0
50.12,6.0,1.0,1.0,1.0
50.16,9.0,1.0,1.0,1.0
50.2,12.0,1.0,1.0,1.0
50.24,17.0,1.0,1.0,1.0
50.28,15.0,1.0,1.0,1.0
50.32,11.0,1.0,1.0,1.0
50.36,14.4944,1.0,1.0,1.0
50.4,11.0,1.0,1.0,1.0
50.44,15.0,1.0,1.0,1.0
50.48,7.0,1.0,1.0,1.0
50.52,10.4944,1.0,1.0,1.0
50.56,9.4944,1.0,1.0,1.0
50.6,3.5056,1.0,1.0,1.0
50.64,15.0,1.0,1.0,1.0
50.68,5.0,1.0,1.0,1.0
50.72,9.0,1.0,1.0,1.0
50.76,9.4944,1.0,1.0,1.0
50.8,3.0,1.0,1.0,1.0
50.84,12.0,1.0,1.0,1.0
50.88,11.0111,1.0,1.0,1.0
50.92,8.0,1.0,1.0,1.0
50.96,8.0,1.0,1.0,1.0
51.0,9.0,1.0,1.0,1.0
51.04,10.0,1.0,1.0,1.0
51.08,2.0,1.0,1.0,1.0
51.12,8.0,1.0,1.0,1.0
51.16,21.0111,1.0,1.0,1.0
51.2,4.0,1.0,1.0,1.0
51.24,2.0,1.0,1.0,1.0
51.28,5.0,1.0,1.0,1.0
51.32,7.0,1.0,1.0,1.0
51.36,9.0,1.0,1.0,1.0
51.4,9.4944,1.0,1.0,1.0
51.44,0.0,1.0,1.0,1.0
51.48,0.5056,1.0,1.0,1.0
51.52,12.5056,1.0,1.0,1.0
51.56,1.5056,1.0,1.0,1.0
51.6,6.0,1.0,1.0,1.0
51.64,13.9889,1.0,1.0,1.0
51.68,13.5056,1.0,1.0,1.0
51.72,7.5056,1.0,1.0,1.0
51.76,5.0,1.0,1.0,1.0
51.8,10.0,1.0,1.0,1.0
51.84,15.0,1.0,1.0,1.0
51.88,2.0,1.0,1.0,1.0
51.92,3.0,1.0,1.0,1.0
51.96,4.0,1.0,1.0,1.0
52.0,7.0,1.0,1.0,1.0