Folder: Analysis/XRD:XRR/STO/22147_STOL (part 2)

File: 22147_STOL_XRD_2_2-Theta_Omega.asc
*TYPE		=  Raw
*CLASS		=  ASCII CLASS
*SAMPLE		=
*COMMENT	=
*FNAME		=  22147_STOL_XRD_2_2-Theta_Omega.asc
*DATE		=  05-Oct-22 16:40

*GROUP_COUNT	=  1
*GONIO		=  SmartLab(In-plane), 0.000000
*ATTACHMENT	=  Z-Phi Stage
*ASC		=  0, 0, 0.000000, 0.000000
*I_MONOCHRO	=  Ge(220)x2, 0.000000
*FILTER		=  None
*C_MONOCHRO	=  None, 0.000000
*SLIT_NAME	=  0, Incident slit
*SLIT_NAME	=  1, Receiving slit # 1
*SLIT_NAME	=  2, Receiving slit # 2
*COUNTER	=  D/teX Ultra 250, 0
*POS_FORMAT	=  0
*SCAN_AXIS	=  2Theta/Omega
*MEAS_MODE	=  Continuous Scanning
*TARGET		=  29
*XRAY_CHAR	=  K-ALPHA1
*WAVE_LENGTH1	=  1.54059
*WAVE_LENGTH2	=  1.54441
*THICKNESS	=  0, 0.000000
*MU		=  0, 0.000000
*SCAN_MODE	=  2Theta/Omega
*SPEED_DIM	=  sec./step
*XUNIT		=  deg.
*YUNIT		=  counts
*SCALE_MODE	=  1
*REP_COUNT	=  0
*SE_COUNT	=  0
*STD_MATERIAL	=  Unknown, Unknown, 0.000000, 0.000000, 0.000000, 0.000000, 0.000000, 0.000000
*LATT_CONS	=  0, Unknown, Unknown, 0.000000, 0.000000, 0.000000, 0.000000, 0.000000, 0.000000
*SEC_COUNT	=  1
*TSPEC_SIZE	=  0
*EXTRA_SIZE	=  0
*MEMO		=

*BEGIN
*GROUP		=  0
*START		=  42
*STOP		=  52
*STEP		=  0.01
*OFFSET		=  -0.041500
*SPEED		=  22.1803
*SLIT_SPEC	=  0, 0.400mm, 0.4, 0.000000
*SLIT_SPEC	=  1, 0.400mm, 0.4, 0.000000
*SLIT_SPEC	=  2, 0.400mm, 0.4, 0.000000
*KV		=  40
*MA		=  30
*LOW		=  0.000000
*HIGH		=  0.000000
*CTEMPER	=  0, 0.000000
*CTEMPER	=  1, 0.000000
*CTEMPER	=  2, 0.000000
*PAREX		=  0, 0.000000
*PAREX		=  1, 0.000000
*PAREX		=  2, 0.000000
*PAREX		=  3, 0.000000
*PAREX		=  4, 0.000000
*PAREX		=  5, 0.000000
*PAREX		=  6, 0.000000
*PAREX		=  7, 0.000000
*PAREX		=  8, 0.000000
*PAREX		=  9, 0.000000
*PAREX		=  10, 0.000000
*PAREX		=  11, 0.000000
*PAREX		=  12, 0.000000
*PAREX		=  13, 0.000000
*PAREX		=  14, 0.000000
*PAREX		=  15, 0.000000
*FULL_SCALE	=  574317
*INDEX		=  0, 0, 0
*COUNT		=  1001
10.4944, 11.5056, 6, 5
8, 75, 2, 4
8, 5, 2, 5.98889
15.0111, 2, 7, 16
14, 9, 7, 10
10, 7, 11, 16
8, 11, 8, 9
13, 13, 14, 10
10, 4, 16, 8
6, 2, 9, 7
22.4944, 12, 9, 17.5056
10, 7, 5, 16
6, 15, 13, 11
6, 2, 8, 12.4944
6.50555, 9, 2.49445, 6.50555
9, 11, 15, 12
5, 11, 13, 10
16, 11, 2, 11.9889
8.50555, 10.5056, 4, 8.49445
24.5056, 17, 18, 15
23, 7, 17, 7
17, 15, 14.4944, 12.5056
7, 13, 19, 8
15, 7.49445, 11, 10.5056
14, 19, 24, 13
12, 9, 13, 22
18, 13, 9, 6.49445
18, 16.4944, 17.0111, 12
20.4944, 22.5056, 20, 13
13, 18, 25, 5
15, 13, 12, 3
14, 21.4944, 14.5056, 4
8.49445, 14.5056, 7.49445, 8
9.50555, 19.4944, 13.5056, 11.4944
7.50555, 12, 7, 14
2, 15.4944, 29.5056, 21.4944
7.50555, 7, 7, 14
15.9889, 23.0111, 18.4944, 9.50555
16, 14, 20, 33.4944
28.5056, 22.9889, 20.0111, 20.4944
18.5056, 13, 16.4944, 18.5056
24, 26, 28.4944, 29.5056
18.4944, 29.5056, 28.9889, 34.0111
16, 42.4944, 34.5056, 29
31, 34, 22.4944, 33.4833
30.5167, 36, 26.4944, 40.5056
35.5056, 42.4944, 22, 48.5056
50.4944, 37, 39.5056, 37.4944
39, 34.4944, 30.5056, 33.4944
38.0111, 37.4944, 46.4944, 45.0111
52, 34.9889, 43, 35.0111
32, 28, 41, 34
40, 41, 32, 34.4944
24, 34.4944, 53.0111, 45.4944
40.5056, 21.4944, 40, 42
41.5056, 28, 32, 19
32.4944, 41.5056, 36, 41.4944
39.5056, 31, 29, 53
36.9889, 50.5056, 25.5056, 42
44, 62.4944, 37, 72
79.5056, 67.9889, 75.9889, 92.5056
84.5167, 81.4833, 90.0111, 104.483
116.506, 117.506, 114, 118.494
148, 152.506, 173, 146.494
157, 167.517, 205, 201.978
206.011, 221.483, 219.494, 287
208.022, 248.494, 302.494, 298.494
278.506, 294, 314.494, 303
326.494, 379.978, 350.033, 361.472
422.989, 449.033, 462.494, 440.989
448.033, 472.472, 520, 534.956
524.528, 578.022, 574.944, 637.528
631.517, 607.956, 634.483, 645.044
597.517, 700.978, 727.033, 719.428
716.539, 762, 774.978, 714.506
786.022, 784.944, 844.528, 813.494
821.483, 889.967, 933, 916.539
903.011, 899.978, 957.044, 912
1012.47, 977.517, 967.494, 949.989
1039.92, 961.078, 991.967, 994.528
1077.97, 1014.04, 1065.47, 1022.99
1062.54, 1085.45, 1014.01, 1081.52
1062.96, 1124.08, 1103.48, 1137.02
1061.98, 1082.51, 1093.48, 1140.99
1057.49, 1034.54, 1121.92, 1023.02
1086.54, 1090.45, 1098.98, 1052.59
1094.99, 1059.99, 1064.48, 1092.94
1046.04, 1005.02, 1027.03, 1073.52
1057.43, 1014.51, 975.472, 991.55
1023.98, 1033, 966.506, 941.022
986.483, 1001.99, 976.572, 935.394
937.55, 910.506, 935.506, 898.033
890.494, 927.956, 864.528, 933.978
857.011, 856.528, 835.978, 828.494
858.506, 860.472, 806, 786.561
773.461, 777.528, 746, 754.483
763.494, 752.506, 722.517, 702.517
715.978, 726, 689.528, 716.517
682.472, 665.989, 693.528, 674.967
622.011, 652.011, 654.472, 637
645.494, 698.022, 623.011, 597.989
626.494, 622.022, 589.483, 601.978
578.517, 518.517, 540.506, 558.967
592, 590.044, 557, 561.461
534.506, 565.539, 566.461, 501.494
511.517, 501.472, 536.506, 521.55
456.483, 545.506, 512, 466
428.506, 462.978, 461.494, 458.989
455.044, 408, 434.472, 437
459.022, 447.494, 400.483, 395.506
410.022, 388, 407.978, 388.022
345.989, 370.967, 394.539, 388.494
356.022, 321.989, 369.011, 370
282.483, 318, 304, 315.022
301.483, 300.989, 284.528, 255.483
275.011, 284, 283, 237.011
259.967, 206.033, 245.483, 260.011
205.517, 205.472, 202.989, 207.011
186.989, 189.517, 189.989, 205.517
192.494, 161.022, 169.978, 187.494
152.022, 152.989, 157.011, 133.483
168, 120.517, 132.483, 119
150, 130.506, 119.011, 109.483
105.506, 94.0111, 100, 107
103.483, 109.022, 106.989, 111.494
91.0111, 117.989, 129.011, 112.506
126.989, 126.978, 135.528, 136.494
144, 131, 145.506, 120.506
121.978, 141.506, 134.494, 161
138.022, 183.989, 175.494, 179.989
168.011, 161.011, 217.483, 205
218.506, 203.483, 197.011, 217.989
221.517, 225.011, 228.472, 214.517
247.494, 242.011, 269.978, 267.506
287.967, 283.033, 255.483, 290.022
311, 348, 340.967, 328.528
307.472, 363.517, 421.472, 334.539
353.989, 397.461, 409.517, 428.539
425.956, 429, 415.011, 488
510.022, 487.439, 572.572, 585.461
595.022, 652.922, 704.506, 777.528
780.978, 811.022, 844.472, 958
1013.93, 1088.06, 1254.92, 1328.61
1548.39, 1707.56, 1888.93, 2271.44
2535.94, 2991.53, 3497.42, 3957.44
4771.84, 5984.9, 7292.9, 9189.06
11810.6, 15560.2, 20777.7, 28904.5
41369.5, 64813.6, 105518, 171441
489065, 1665282.8, 2232793.3, 2775155.3
4593614, 8819583, 10478885, 10014415
8011028.5, 6870280.5, 5563681.5, 4596377
3050854.8, 1193244.3, 270471, 124729
76678.5, 49921.7, 33386.2, 23948.9
17586.5, 13562.4, 10604.3, 8676.21
6880.74, 5727.57, 4835.63, 4083.58
3526.47, 2903.58, 2509.52, 2128.58
1827.02, 1579.55, 1450.54, 1223.43
1137, 1066.54, 912.572, 810.978
682.45, 668.55, 624.033, 590.022
524.956, 491.528, 407.978, 427.011
387.494, 387.011, 350.506, 333.494
282.506, 335.528, 270.483, 262.506
243.506, 252, 222.989, 223.517
196.989, 195.517, 164.494, 170
155, 169.494, 138.011, 130.989
146.506, 116, 154.989, 111
122.506, 120.989, 116.022, 81
74.4833, 116.506, 77.0111, 91.5056
87.4833, 78.5056, 84, 98.9889
68.5167, 81.4944, 67.0111, 73.4944
59, 74, 56, 76
59.9889, 45.0111, 74.9889, 60.0111
67.5056, 48, 45, 42
74.4944, 61.4944, 43.0111, 51
44, 31.9778, 31.0222, 36
45.9889, 40.0111, 32.9889, 56.5056
33, 31.5056, 45.4944, 38.4944
35.5056, 37.4944, 31.0111, 50.9889
45.0111, 26, 34, 34
20, 28, 27.9889, 26.4944
34.5167, 31, 21, 34.4944
21.5056, 24, 18, 22.4944
22.5056, 36, 16, 16
39.4944, 24.5056, 26, 24
17, 14.4944, 27.4944, 17.0111
8.49445, 21.5056, 10, 13.9889
25.0111, 34, 22, 22.9889
22.5056, 17.4944, 33.0111, 23
29.9889, 26.0111, 13, 24
15, 18.9889, 16.0111, 18
17.4944, 19.5056, 51.4944, 28
9.50555, 21.4944, 17.5056, 18
15.4944, 10, 17.4944, 13.0111
23, 21, 16, 26
17, 13, 16.4944, 21.5056
16, 18, 26.4944, 15.5056
12, 16, 6, 22
21, 20, 6.98889, 19
14.0111, 24, 26.4944, 16.4944
12.0111, 17, 12, 22.4944
11.5056, 14.4944, 18, 15
9.50555, 21, 9.49445, 4.50555
12, 8, 17, 10
6, 10, 9, 2
9, 4, 17, 10
12, 15, 5, 5.49445
17, 15.5056, 7, 6
15, 10, 8, 10
11, 14, 9, 11
14.4944, 11, 2.50555, 5
11, 15, 3, 16
15, 8, 6, 12
7, 5, 16, 11
10.4944, 8, 4.50555, 12
9.49445, 7.50555, 4, 14.4944
3.50555, 19, 7, 2
15, 10.4944, 5.50555, 12
5, 8, 14.4944, 6
9, 16, 10.5056, 9
9.49445, 13, 14, 10.5056
3, 9, 8, 3
12, 8, 9, 11.9889
11.0111, 8, 6, 4
8, 14, 12, 12
8, 12, 12.4833, 9.51666
9, 21, 7, 2
10, 0.000000, 9, 5
2, 10, 13, 9
8, 9, 5, 5.98889
21.0111, 13, 5.49445, 11.5056
4, 9, 12, 8
2, 11.4944, 13.5056, 10
5, 34, 5, 3
7, 7, 3, 4
9, 6, 13, 10
9.49445, 3.50555, 2, 6
0.000000, 5, 11, 8.49445
0.505554, 14, 5, 14.4944
12.5056, 14, 5, 2.49445
1.50555, 3, 10.4944, 11.5056
6, 4, 5, 6
13.9889, 6.01111, 0.000000, 16.4944
13.5056, 6, 3, 6.49445
7.50555, 4, 10, 10
5, 17, 4, 5
10, 7, 0.000000, 6
15, 4, 0.000000, 13
2, 4.49445, 8.50555, 7
3, 0.000000, 6.49445, 16.5056
4, 12, 7, 3
7
*END

*EOF