Folder: Analysis/XRD:XRR/STO/22149_STOL

File: 22149_STOL_XRD.csv
#twotheta, yobs, ycal, bkg, diff
42.0,12.0,1.0,1.0,1.0
42.05,23.0,1.0,1.0,1.0
42.1,8.0,1.0,1.0,1.0
42.15,8.4944,1.0,1.0,1.0
42.2,19.0,1.0,1.0,1.0
42.25,18.9889,1.0,1.0,1.0
42.3,25.0,1.0,1.0,1.0
42.35,17.0,1.0,1.0,1.0
42.4,36.0,1.0,1.0,1.0
42.45,25.0,1.0,1.0,1.0
42.5,27.0111,1.0,1.0,1.0
42.55,26.0,1.0,1.0,1.0
42.6,23.4944,1.0,1.0,1.0
42.65,54.4944,1.0,1.0,1.0
42.7,55.5056,1.0,1.0,1.0
42.75,36.0,1.0,1.0,1.0
42.8,32.9889,1.0,1.0,1.0
42.85,43.0111,1.0,1.0,1.0
42.9,53.0,1.0,1.0,1.0
42.95,41.4944,1.0,1.0,1.0
43.0,53.0,1.0,1.0,1.0
43.05,51.0,1.0,1.0,1.0
43.1,35.4944,1.0,1.0,1.0
43.15,23.5056,1.0,1.0,1.0
43.2,42.4944,1.0,1.0,1.0
43.25,28.0,1.0,1.0,1.0
43.3,17.0,1.0,1.0,1.0
43.35,27.0,1.0,1.0,1.0
43.4,22.0,1.0,1.0,1.0
43.45,31.5056,1.0,1.0,1.0
43.5,20.0,1.0,1.0,1.0
43.55,23.0,1.0,1.0,1.0
43.6,25.0,1.0,1.0,1.0
43.65,10.0,1.0,1.0,1.0
43.7,37.4944,1.0,1.0,1.0
43.75,31.4944,1.0,1.0,1.0
43.8,44.0,1.0,1.0,1.0
43.85,55.9889,1.0,1.0,1.0
43.9,126.5056,1.0,1.0,1.0
43.95,87.0,1.0,1.0,1.0
44.0,154.0111,1.0,1.0,1.0
44.05,172.0111,1.0,1.0,1.0
44.1,198.0,1.0,1.0,1.0
44.15,255.0,1.0,1.0,1.0
44.2,251.9889,1.0,1.0,1.0
44.25,315.4944,1.0,1.0,1.0
44.3,357.4722,1.0,1.0,1.0
44.35,360.5167,1.0,1.0,1.0
44.4,445.0444,1.0,1.0,1.0
44.45,485.9889,1.0,1.0,1.0
44.5,536.4722,1.0,1.0,1.0
44.55,623.9667,1.0,1.0,1.0
44.6,650.0667,1.0,1.0,1.0
44.65,648.4722,1.0,1.0,1.0
44.7,712.0333,1.0,1.0,1.0
44.75,722.4944,1.0,1.0,1.0
44.8,763.4389,1.0,1.0,1.0
44.85,783.0111,1.0,1.0,1.0
44.9,844.4944,1.0,1.0,1.0
44.95,923.4611,1.0,1.0,1.0
45.0,840.9778,1.0,1.0,1.0
45.05,901.0111,1.0,1.0,1.0
45.1,882.5167,1.0,1.0,1.0
45.15,921.5389,1.0,1.0,1.0
45.2,961.0,1.0,1.0,1.0
45.25,899.9889,1.0,1.0,1.0
45.3,899.45,1.0,1.0,1.0
45.35,858.4944,1.0,1.0,1.0
45.4,885.0,1.0,1.0,1.0
45.45,896.5278,1.0,1.0,1.0
45.5,743.4944,1.0,1.0,1.0
45.55,730.5056,1.0,1.0,1.0
45.6,666.4944,1.0,1.0,1.0
45.65,647.9889,1.0,1.0,1.0
45.7,613.0,1.0,1.0,1.0
45.75,570.0111,1.0,1.0,1.0
45.8,520.45,1.0,1.0,1.0
45.85,503.4944,1.0,1.0,1.0
45.9,429.4833,1.0,1.0,1.0
45.95,460.5056,1.0,1.0,1.0
46.0,421.9556,1.0,1.0,1.0
46.05,381.0,1.0,1.0,1.0
46.1,357.4833,1.0,1.0,1.0
46.15,323.0222,1.0,1.0,1.0
46.2,304.9889,1.0,1.0,1.0
46.25,286.9556,1.0,1.0,1.0
46.3,280.5056,1.0,1.0,1.0
46.35,282.5056,1.0,1.0,1.0
46.4,252.9889,1.0,1.0,1.0
46.45,260.5167,1.0,1.0,1.0
46.5,281.9889,1.0,1.0,1.0
46.55,264.0111,1.0,1.0,1.0
46.6,257.5056,1.0,1.0,1.0
46.65,230.9889,1.0,1.0,1.0
46.7,303.5167,1.0,1.0,1.0
46.75,271.4833,1.0,1.0,1.0
46.8,293.4722,1.0,1.0,1.0
46.85,338.5278,1.0,1.0,1.0
46.9,321.5056,1.0,1.0,1.0
46.95,320.0222,1.0,1.0,1.0
47.0,365.5167,1.0,1.0,1.0
47.05,503.9667,1.0,1.0,1.0
47.1,445.4944,1.0,1.0,1.0
47.15,412.4944,1.0,1.0,1.0
47.2,428.4944,1.0,1.0,1.0
47.25,488.5389,1.0,1.0,1.0
47.3,504.5056,1.0,1.0,1.0
47.35,537.5278,1.0,1.0,1.0
47.4,565.0333,1.0,1.0,1.0
47.45,637.5167,1.0,1.0,1.0
47.5,724.9889,1.0,1.0,1.0
47.55,851.9889,1.0,1.0,1.0
47.6,1009.44,1.0,1.0,1.0
47.65,1299.48,1.0,1.0,1.0
47.7,1872.49,1.0,1.0,1.0
47.75,2949.06,1.0,1.0,1.0
47.8,7465.91,1.0,1.0,1.0
47.85,26719.5,1.0,1.0,1.0
47.9,136698,1.0,1.0,1.0
47.95,19061714.0,1.0,1.0,1.0
48.0,430230,1.0,1.0,1.0
48.05,76418.9,1.0,1.0,1.0
48.1,18839,1.0,1.0,1.0
48.15,6371.66,1.0,1.0,1.0
48.2,2996.02,1.0,1.0,1.0
48.25,1629.04,1.0,1.0,1.0
48.3,1127.54,1.0,1.0,1.0
48.35,820.5056,1.0,1.0,1.0
48.4,617.4944,1.0,1.0,1.0
48.45,458.9778,1.0,1.0,1.0
48.5,361.5056,1.0,1.0,1.0
48.55,235.4833,1.0,1.0,1.0
48.6,175.4833,1.0,1.0,1.0
48.65,152.9889,1.0,1.0,1.0
48.7,116.0,1.0,1.0,1.0
48.75,108.9889,1.0,1.0,1.0
48.8,77.0,1.0,1.0,1.0
48.85,56.4944,1.0,1.0,1.0
48.9,71.0,1.0,1.0,1.0
48.95,73.5056,1.0,1.0,1.0
49.0,54.4944,1.0,1.0,1.0
49.05,45.0,1.0,1.0,1.0
49.1,31.5056,1.0,1.0,1.0
49.15,43.9889,1.0,1.0,1.0
49.2,41.0,1.0,1.0,1.0
49.25,36.5056,1.0,1.0,1.0
49.3,42.9889,1.0,1.0,1.0
49.35,40.0,1.0,1.0,1.0
49.4,35.0,1.0,1.0,1.0
49.45,40.0,1.0,1.0,1.0
49.5,36.5056,1.0,1.0,1.0
49.55,23.9889,1.0,1.0,1.0
49.6,23.0,1.0,1.0,1.0
49.65,21.0,1.0,1.0,1.0
49.7,15.5056,1.0,1.0,1.0
49.75,21.0,1.0,1.0,1.0
49.8,26.0,1.0,1.0,1.0
49.85,20.0,1.0,1.0,1.0
49.9,29.0,1.0,1.0,1.0
49.95,19.0,1.0,1.0,1.0
50.0,19.0,1.0,1.0,1.0
50.05,22.4944,1.0,1.0,1.0
50.1,10.0,1.0,1.0,1.0
50.15,9.5056,1.0,1.0,1.0
50.2,9.4944,1.0,1.0,1.0
50.25,12.5056,1.0,1.0,1.0
50.3,11.4944,1.0,1.0,1.0
50.35,13.0,1.0,1.0,1.0
50.4,17.0,1.0,1.0,1.0
50.45,18.0,1.0,1.0,1.0
50.5,12.0111,1.0,1.0,1.0
50.55,17.0,1.0,1.0,1.0
50.6,5.0,1.0,1.0,1.0
50.65,8.5056,1.0,1.0,1.0
50.7,13.5056,1.0,1.0,1.0
50.75,0.0,1.0,1.0,1.0
50.8,12.0,1.0,1.0,1.0
50.85,7.0,1.0,1.0,1.0
50.9,9.0111,1.0,1.0,1.0
50.95,19.4944,1.0,1.0,1.0
51.0,7.0,1.0,1.0,1.0
51.05,15.4944,1.0,1.0,1.0
51.1,5.0,1.0,1.0,1.0
51.15,12.0,1.0,1.0,1.0
51.2,8.5056,1.0,1.0,1.0
51.25,15.0,1.0,1.0,1.0
51.3,7.0,1.0,1.0,1.0
51.35,7.5056,1.0,1.0,1.0
51.4,4.0,1.0,1.0,1.0
51.45,9.0,1.0,1.0,1.0
51.5,8.0,1.0,1.0,1.0
51.55,14.0,1.0,1.0,1.0
51.6,2.0,1.0,1.0,1.0
51.65,4.0,1.0,1.0,1.0
51.7,5.0,1.0,1.0,1.0
51.75,13.0,1.0,1.0,1.0
51.8,9.0,1.0,1.0,1.0
51.85,3.0,1.0,1.0,1.0
51.9,6.0,1.0,1.0,1.0
51.95,11.0,1.0,1.0,1.0
52.0,3.5056,1.0,1.0,1.0
0.44,2450486.5,1.0,1.0,1.0
0.49,2727782.5,1.0,1.0,1.0
0.54,2976212.5,1.0,1.0,1.0
0.59,3144648.5,1.0,1.0,1.0
0.64,3206102.5,1.0,1.0,1.0
0.69,2969264.0,1.0,1.0,1.0
0.74,2173446.75,1.0,1.0,1.0
0.79,1.04196e+06,1.0,1.0,1.0
0.84,406279,1.0,1.0,1.0
0.89,186236,1.0,1.0,1.0
0.94,102775,1.0,1.0,1.0
0.99,70143,1.0,1.0,1.0
1.04,56261.5,1.0,1.0,1.0
1.09,51084.0,1.0,1.0,1.0
1.14,49519,1.0,1.0,1.0
1.19,48135.5,1.0,1.0,1.0
1.24,46960.5,1.0,1.0,1.0
1.29,45260.5,1.0,1.0,1.0
1.34,42439.5,1.0,1.0,1.0
1.39,39076.5,1.0,1.0,1.0
1.44,35911.5,1.0,1.0,1.0
1.49,31836.5,1.0,1.0,1.0
1.54,28070.0,1.0,1.0,1.0
1.59,24247.502,1.0,1.0,1.0
1.64,20081.5,1.0,1.0,1.0
1.69,16470.002,1.0,1.0,1.0
1.74,13467.5,1.0,1.0,1.0
1.79,10849.5,1.0,1.0,1.0
1.84,8610.499,1.0,1.0,1.0
1.89,6650.0,1.0,1.0,1.0
1.94,5284.5,1.0,1.0,1.0
1.99,3993.0,1.0,1.0,1.0
2.04,3205,1.0,1.0,1.0
2.09,2718.5,1.0,1.0,1.0
2.14,2338.5,1.0,1.0,1.0
2.19,2343.5,1.0,1.0,1.0
2.24,2295.5,1.0,1.0,1.0
2.29,2225.5,1.0,1.0,1.0
2.34,2329.0,1.0,1.0,1.0
2.39,2424.999,1.0,1.0,1.0
2.44,2634.5,1.0,1.0,1.0
2.49,2604.5,1.0,1.0,1.0
2.54,2634.5,1.0,1.0,1.0
2.59,2547.5,1.0,1.0,1.0
2.64,2540.5,1.0,1.0,1.0
2.69,2548,1.0,1.0,1.0
2.74,2338,1.0,1.0,1.0
2.79,2164.5,1.0,1.0,1.0
2.84,1992.5,1.0,1.0,1.0
2.89,1844.999,1.0,1.0,1.0
2.94,1586.5,1.0,1.0,1.0
2.99,1491.5,1.0,1.0,1.0
3.04,1288,1.0,1.0,1.0
3.09,1116.5,1.0,1.0,1.0
3.14,979.9996,1.0,1.0,1.0
3.19,869.0,1.0,1.0,1.0
3.24,737.4998,1.0,1.0,1.0
3.29,643.4998,1.0,1.0,1.0
3.34,644.5001,1.0,1.0,1.0
3.39,552.0,1.0,1.0,1.0
3.44,481.9999,1.0,1.0,1.0
3.49,506.5002,1.0,1.0,1.0
3.54,494.0002,1.0,1.0,1.0
3.59,552.5002,1.0,1.0,1.0
3.64,533.9996,1.0,1.0,1.0
3.69,571.4999,1.0,1.0,1.0
3.74,553.9999,1.0,1.0,1.0
3.79,621.9997,1.0,1.0,1.0
3.84,664.5001,1.0,1.0,1.0
3.89,669.4995,1.0,1.0,1.0
3.94,684.5002,1.0,1.0,1.0
3.99,668.0002,1.0,1.0,1.0
4.04,656.9999,1.0,1.0,1.0
4.09,668.4998,1.0,1.0,1.0
4.14,656.4998,1.0,1.0,1.0
4.19,688.4999,1.0,1.0,1.0
4.24,607.9998,1.0,1.0,1.0
4.29,612.5004,1.0,1.0,1.0
4.34,567.5006,1.0,1.0,1.0
4.39,561.4998,1.0,1.0,1.0
4.44,475.5002,1.0,1.0,1.0
4.49,528.4999,1.0,1.0,1.0
4.5,503.5002,1.0,1.0,1.0

File: 22149_STOL_XRD_2-Theta_Omega.asc
*TYPE		=  Raw
*CLASS		=  ASCII CLASS
*SAMPLE		=
*COMMENT	=
*FNAME		=  22149_STOL_XRD_2-Theta_Omega.asc
*DATE		=  10-Oct-22 19:52

*GROUP_COUNT	=  1
*GONIO		=  SmartLab(In-plane), 0.000000
*ATTACHMENT	=  Z-Phi Stage
*ASC		=  0, 0, 0.000000, 0.000000
*I_MONOCHRO	=  Ge(220)x2, 0.000000
*FILTER		=  None
*C_MONOCHRO	=  None, 0.000000
*SLIT_NAME	=  0, Incident slit
*SLIT_NAME	=  1, Receiving slit # 1
*SLIT_NAME	=  2, Receiving slit # 2
*COUNTER	=  D/teX Ultra 250, 0
*POS_FORMAT	=  0
*SCAN_AXIS	=  2Theta/Omega
*MEAS_MODE	=  Continuous Scanning
*TARGET		=  29
*XRAY_CHAR	=  K-ALPHA1
*WAVE_LENGTH1	=  1.54059
*WAVE_LENGTH2	=  1.54441
*THICKNESS	=  0, 0.000000
*MU		=  0, 0.000000
*SCAN_MODE	=  2Theta/Omega
*SPEED_DIM	=  sec./step
*XUNIT		=  deg.
*YUNIT		=  counts
*SCALE_MODE	=  1
*REP_COUNT	=  0
*SE_COUNT	=  0
*STD_MATERIAL	=  Unknown, Unknown, 0.000000, 0.000000, 0.000000, 0.000000, 0.000000, 0.000000
*LATT_CONS	=  0, Unknown, Unknown, 0.000000, 0.000000, 0.000000, 0.000000, 0.000000, 0.000000
*SEC_COUNT	=  2
*TSPEC_SIZE	=  0
*EXTRA_SIZE	=  0
*MEMO		=

*BEGIN
*GROUP		=  0
*START		=  42
*STOP		=  52
*STEP		=  0.01
*OFFSET		=  -0.051000
*SPEED		=  23.9588
*SLIT_SPEC	=  0, 0.400mm, 0.4, 0.000000
*SLIT_SPEC	=  1, 0.400mm, 0.4, 0.000000
*SLIT_SPEC	=  2, 0.400mm, 0.4, 0.000000
*KV		=  40
*MA		=  30
*LOW		=  0.000000
*HIGH		=  0.000000
*CTEMPER	=  0, 0.000000
*CTEMPER	=  1, 0.000000
*CTEMPER	=  2, 0.000000
*PAREX		=  0, 0.000000
*PAREX		=  1, 0.000000
*PAREX		=  2, 0.000000
*PAREX		=  3, 0.000000
*PAREX		=  4, 0.000000
*PAREX		=  5, 0.000000
*PAREX		=  6, 0.000000
*PAREX		=  7, 0.000000
*PAREX		=  8, 0.000000
*PAREX		=  9, 0.000000
*PAREX		=  10, 0.000000
*PAREX		=  11, 0.000000
*PAREX		=  12, 0.000000
*PAREX		=  13, 0.000000
*PAREX		=  14, 0.000000
*PAREX		=  15, 0.000000
*FULL_SCALE	=  1965945.6
*INDEX		=  0, 0, 0
*COUNT		=  1001
12, 14.4944, 21, 18.4944
9.01111, 23, 6, 10
18, 20, 8, 15
14.4944, 28.5056, 15, 8.49445
18, 27.5056, 10, 24
19, 18, 24, 19
8, 18.9889, 22.0111, 21
14, 15, 25, 6
18.4944, 32.5056, 16, 17
18.9889, 20.0111, 24, 21
36, 27.9889, 16.0111, 30
13, 25, 34, 17
33, 28.9889, 27.0111, 31
34.9889, 54.0111, 43, 26
31, 18.4944, 43.5056, 31.4944
23.4944, 41.5056, 38, 48.5056
38, 54.4944, 39.5056, 27
42.9889, 55.5056, 55.5056, 49
36.4944, 54, 39, 36
46.5056, 48, 51.4944, 50.5056
32.9889, 48.5056, 50.5056, 38
50.4833, 43.0111, 48.4944, 43.5056
41, 57.5056, 53, 36.9889
50.5056, 62.4944, 42.0111, 41.4944
23, 42, 67.5056, 44
53, 34.9889, 53, 45.5056
48.5056, 51, 42, 39.4944
51, 39.5056, 35.4944, 50.5056
34.4944, 43, 28, 23.5056
38.4944, 36, 16.5056, 34
42.4944, 32.5056, 33, 34.4944
27.5056, 28, 35, 23.9889
33.0111, 25, 17, 25
13, 19, 34, 27
12.9889, 21.0111, 13.4944, 24.5056
22, 30, 27, 11
20.4944, 31.5056, 12.9889, 18.5056
13.5056, 15, 20, 9
13, 19, 14, 23
36, 18, 21, 20
25, 31.4833, 22.5167, 16
25, 10, 31.9889, 23.0111
23.4944, 22.5056, 37.4944, 51.4833
36.0222, 51, 33, 31.4944
50.5056, 62, 47.9889, 38.5056
44, 51, 52, 67.5056
56, 55.9889, 84.5056, 93.9889
70.5056, 85, 126.506, 78.9889
87.4944, 112.011, 109.506, 87
122.506, 139.483, 142.011, 147.483
154.011, 155.483, 146.011, 168.989
172.494, 172.011, 160.517, 144.494
209.978, 209.517, 198, 233.483
182.022, 219.494, 242.483, 255
262.011, 247.517, 281.967, 251.022
251.989, 259.967, 267.033, 262.517
272.483, 315.494, 273.506, 332.989
302.517, 302.483, 357.472, 319.033
328.494, 343, 355.506, 360.517
386.967, 419.011, 411.978, 416.494
445.044, 451, 465.483, 445.989
472.022, 485.989, 468.989, 506.011
495.494, 523.494, 536.472, 559.528
553.494, 536.989, 583.506, 623.967
563.033, 621.483, 652.044, 654.933
650.067, 597.967, 678.483, 617
654.528, 648.472, 679.517, 685.978
711.011, 680.989, 712.033, 703.978
713.517, 686.978, 712.494, 722.494
734.472, 793.539, 826.45, 763.583
763.439, 799.539, 842.506, 809.956
832.022, 783.011, 812.483, 786.461
821.506, 825.033, 844.494, 859.506
874.55, 851.439, 862.483, 923.461
854.55, 871.483, 889.033, 892.011
840.978, 879.011, 849.528, 874.989
908.989, 901.011, 887.472, 964.483
838.056, 899.461, 882.517, 877.45
873.067, 932.483, 881.483, 921.539
879.483, 922.506, 896.978, 905.483
961, 895.483, 927.528, 895.472
861.067, 899.989, 937.967, 936.483
874.561, 892.506, 899.45, 862.55
872.967, 911.989, 869.011, 858.494
867.517, 816, 835.978, 812.506
885, 808.011, 847.011, 833.967
841, 896.528, 783.978, 785.044
769.45, 771.517, 743.494, 812.517
766.55, 779.439, 758.022, 730.506
742.45, 784.022, 693, 690.528
666.494, 716.989, 707.517, 693.011
684.978, 647.989, 686.033, 686.472
659, 658.022, 613, 652.483
646.978, 587.539, 589.989, 570.011
636.506, 596.461, 584, 535.056
520.45, 571.561, 549.483, 535.472
510.528, 503.494, 534.461, 498.044
522.483, 456.011, 429.483, 505.506
491.506, 437.011, 424.967, 460.506
437.506, 429.506, 449.033, 362
421.956, 461.517, 371.011, 389.494
370.022, 381, 344.483, 407.517
374, 359.989, 357.483, 354
374.022, 342.517, 321.978, 323.022
316.989, 330.506, 336.472, 306.528
304.989, 267.506, 308, 315.011
260.506, 286.956, 306.539, 273.483
275.528, 264.472, 280.506, 288.494
284, 240.483, 269.528, 282.506
278.494, 281.494, 278.506, 256.506
252.989, 285.989, 277.011, 286
240.989, 260.517, 275.483, 283.517
234.011, 264.978, 281.989, 258.011
252, 284.494, 293.506, 264.011
270.506, 241.472, 280.011, 249.494
257.506, 257.989, 279.022, 230.989
273, 230.989, 268.011, 282.011
289, 293.483, 303.517, 270.989
277, 283.506, 295.494, 271.483
312.011, 322.011, 327.472, 303.033
293.472, 328.506, 332.528, 313.483
338.978, 338.528, 333.483, 316
328.506, 310, 321.506, 339.011
336.967, 320.539, 321.472, 320.022
383, 370.506, 401.978, 368.472
365.517, 392.989, 381.022, 338.517
366.989, 503.967, 348.528, 371.022
391.494, 373.978, 445.494, 416
427.989, 414.044, 436.494, 412.494
435.472, 469.483, 434.033, 451.483
428.494, 446.033, 468.967, 489.517
448.494, 488.539, 482.944, 502.506
499, 450.483, 504.506, 502.044
476.461, 531, 545.989, 537.528
536.461, 506.572, 616.911, 566.033
565.033, 570.989, 580.967, 619.517
598.989, 637.517, 693.956, 687.022
692.011, 703.506, 724.989, 791.978
757.561, 828.517, 778.922, 851.989
910.033, 928.011, 964.978, 962.517
1009.44, 1115.53, 1193.42, 1244.59
1289.45, 1299.48, 1493.44, 1522.08
1639.46, 1759, 1872.49, 1964.44
2141.03, 2452.49, 2634.36, 2949.06
3391.91, 3774.94, 4374.96, 5617.17
7465.91, 9702.15, 12565.3, 16916.7
19398.2, 26719.5, 37842, 51570.3
69895.3, 94972.6, 136698, 206252
333843, 632949, 2553168.3, 19061714
34953080, 12865865, 2342095, 677833
430230, 321428, 232374, 158625
108066, 76418.9, 55840.4, 42130.9
32105, 24188.2, 18839, 14805
11475.2, 9203.61, 7469.12, 6371.66
5102.23, 4485.56, 3862.48, 3301.58
2996.02, 2613.56, 2264.02, 1942.44
1866.09, 1629.04, 1533.55, 1348.51
1321.48, 1165.49, 1127.54, 1009.98
1016.49, 912.55, 821.989, 820.506
787.506, 703.517, 618.978, 670.011
617.494, 571.033, 557.483, 481.022
468.011, 458.978, 403.494, 464.506
394.494, 357.517, 361.506, 316.494
317.517, 297.494, 300.011, 235.483
229.011, 210.989, 235.022, 191
175.483, 205.494, 209.022, 154
173.494, 152.989, 132.506, 133.517
139.506, 98, 116, 127.978
142.506, 125.011, 114, 108.989
112, 101.011, 86.5056, 97
77, 76.9889, 87, 63.0111
88, 56.4944, 75.4944, 71.5056
74.4944, 48.0111, 71, 56.4944
60, 58.5056, 58.4944, 73.5056
47.4944, 49, 32.4944, 45.0111
54.4944, 38, 54.5056, 49.9889
50.0111, 45, 34, 48.4944
[...]
*STEP		=  0.01
*OFFSET		=  -0.051000
*SPEED		=  20.6484
*SLIT_SPEC	=  0, 1.000mm, 1, 0.000000
*SLIT_SPEC	=  1, 1.000mm, 1, 0.000000
*SLIT_SPEC	=  2, 1.000mm, 1, 0.000000
*KV		=  40
*MA		=  30
*LOW		=  0.000000
*HIGH		=  0.000000
*CTEMPER	=  0, 0.000000
*CTEMPER	=  1, 0.000000
*CTEMPER	=  2, 0.000000
*PAREX		=  0, 0.000000
*PAREX		=  1, 0.000000
*PAREX		=  2, 0.000000
*PAREX		=  3, 0.000000
*PAREX		=  4, 0.000000
*PAREX		=  5, 0.000000
*PAREX		=  6, 0.000000
*PAREX		=  7, 0.000000
*PAREX		=  8, 0.000000
*PAREX		=  9, 0.000000
*PAREX		=  10, 0.000000
*PAREX		=  11, 0.000000
*PAREX		=  12, 0.000000
*PAREX		=  13, 0.000000
*PAREX		=  14, 0.000000
*PAREX		=  15, 0.000000
*FULL_SCALE	=  187904
*INDEX		=  0, 0, 0
*COUNT		=  411
2215731.5, 2275634, 2332331.5, 2393817
2450486.5, 2506674, 2566618, 2618881
2673057.5, 2727782.5, 2780638.5, 2827518
2876856.5, 2924180.5, 2976212.5, 3015279.5
3051805, 3087279, 3121082, 3144648.5
3172253.5, 3189902.5, 3201661, 3205177.5
3206102.5, 3187775, 3154820.5, 3111907
3052535.5, 2969264, 2862518.8, 2730675.8
2569332.3, 2383416.8, 2173446.8, 1949614.3
1713412.8, 1475464.8, 1249957.8, 1041956.7
862954, 709682, 585053, 485739
406279, 341237, 289643, 247448
214047, 186236, 163387, 143729
127050, 114199, 102775, 94115.5
85877, 80167, 74802, 70143
65934.5, 63113, 61036.5, 58219.5
56261.5, 54914, 53642.5, 53275.5
52268, 51084, 51059, 50456.5
49731.5, 49896, 49519, 48953.5
48907.5, 48640, 48489, 48135.5
47617, 47211, 47039.5, 46967.5
46960.5, 46657.5, 46114.5, 45731
45250, 45260.5, 44833.5, 43855
43597.5, 42965.5, 42439.5, 42094.5
41357.5, 40905, 40311, 39076.5
38626, 38162.5, 37412, 36460.5
35911.5, 35078.5, 34458, 33619.5
32950.5, 31836.5, 31018.5, 30243.5
29421.5, 28869.5, 28070, 27108
26419.5, 25601.5, 24694, 24247.5
23374.5, 22464, 21657.5, 21029.5
20081.5, 19382, 18862.5, 17983.5
17292.5, 16470, 16181.5, 15570.5
14845.5, 14007, 13467.5, 12988.5
12380.5, 11778, 11137, 10849.5
10242, 9859.5, 9327, 8983
8610.5, 8152, 7670.5, 7224
6939.5, 6650, 6383.5, 5944.5
5706, 5412, 5284.5, 4907.5
4714.5, 4557.5, 4081, 3993
3829, 3780.5, 3501.5, 3484
3205, 3076.5, 2923.5, 2875
2753, 2718.5, 2625.5, 2538.5
2481.5, 2340.5, 2338.5, 2285.5
2263.5, 2255, 2333.5, 2343.5
2298.5, 2168, 2228.5, 2265.5
2295.5, 2233, 2194, 2252
2210.5, 2225.5, 2234.5, 2264
2312, 2304, 2329, 2343.5
2379.5, 2440, 2499, 2425
2457.5, 2457.5, 2501, 2540.5
2634.5, 2500, 2564, 2629.5
2681.5, 2604.5, 2693.5, 2652
2583, 2634.5, 2634.5, 2595.5
2705.5, 2580.5, 2589.5, 2547.5
2634.5, 2652.5, 2570.5, 2562
2540.5, 2560, 2518.5, 2430.5
2503.5, 2548, 2416, 2363
2502, 2397, 2338, 2241.5
2306, 2275, 2172.5, 2164.5
2244.5, 2088.5, 2047.5, 2058
1992.5, 1910, 1950, 1926.5
1853, 1845, 1837, 1647.5
1721, 1655.5, 1586.5, 1537.5
1545.5, 1521.5, 1454.5, 1491.5
1440, 1453, 1318.5, 1315
1288, 1284.5, 1246, 1213
1140, 1116.5, 1086.5, 1096
1015, 1006, 980, 980
932.5, 877.5, 866, 869
823, 835, 753.5, 759.5
737.5, 717, 694, 737
655, 643.5, 642.5, 612.5
649.5, 627.5, 644.5, 608
575, 562, 537, 552
504, 539, 512, 507
482, 527, 490.5, 534
473, 506.5, 547, 482.5
500.5, 510, 494, 509
519.5, 498, 575, 552.5
510, 457.5, 572, 499.5
534, 557, 524, 547.5
531, 571.5, 581.5, 558.5
579, 581.5, 554, 631
576.5, 583, 584.5, 622
573, 640.5, 649, 637.5
664.5, 695, 653.5, 643
610.5, 669.5, 704.001, 646
693, 692, 684.5, 642
684.5, 668, 707, 668
667.5, 668.5, 712, 702
657, 682.5, 708.5, 743
655.5, 668.5, 682.5, 733
635, 682.5, 656.5, 667.5
620.5, 602, 678.5, 688.5
643, 660, 610, 685.5
608, 616, 613.5, 620
646.5, 612.5, 589.999, 621.5
613.5, 533, 567.501, 551.5
564.5, 552.5, 533, 561.5
494.5, 496.5, 531, 544.5
475.5, 523.5, 502.5, 447.5
503, 528.5, 503.5
*END

*EOF