Folder: Analysis/XRD:XRR

File: 22148b_LCOL_XRD.csv
#twotheta, yobs, ycal, bkg, diff
42.0,17.4944,1.0,1.0,1.0
42.05,18.4944,1.0,1.0,1.0
42.1,23.5056,1.0,1.0,1.0
42.15,11.0,1.0,1.0,1.0
42.2,8.0,1.0,1.0,1.0
42.25,17.0,1.0,1.0,1.0
42.3,24.0,1.0,1.0,1.0
42.35,23.0,1.0,1.0,1.0
42.4,17.0,1.0,1.0,1.0
42.45,18.5056,1.0,1.0,1.0
42.5,30.4944,1.0,1.0,1.0
42.55,29.0,1.0,1.0,1.0
42.6,28.0,1.0,1.0,1.0
42.65,9.0,1.0,1.0,1.0
42.7,11.4944,1.0,1.0,1.0
42.75,14.0,1.0,1.0,1.0
42.8,11.9889,1.0,1.0,1.0
42.85,24.0,1.0,1.0,1.0
42.9,19.0,1.0,1.0,1.0
42.95,16.0,1.0,1.0,1.0
43.0,21.5056,1.0,1.0,1.0
43.05,23.9889,1.0,1.0,1.0
43.1,9.0,1.0,1.0,1.0
43.15,23.4944,1.0,1.0,1.0
43.2,36.0111,1.0,1.0,1.0
43.25,66.0,1.0,1.0,1.0
43.3,40.0,1.0,1.0,1.0
43.35,42.0111,1.0,1.0,1.0
43.4,56.4944,1.0,1.0,1.0
43.45,43.9889,1.0,1.0,1.0
43.5,46.0,1.0,1.0,1.0
43.55,42.5167,1.0,1.0,1.0
43.6,27.9889,1.0,1.0,1.0
43.65,46.5056,1.0,1.0,1.0
43.7,36.4944,1.0,1.0,1.0
43.75,24.5056,1.0,1.0,1.0
43.8,27.5056,1.0,1.0,1.0
43.85,26.0,1.0,1.0,1.0
43.9,8.0,1.0,1.0,1.0
43.95,20.4944,1.0,1.0,1.0
44.0,31.0,1.0,1.0,1.0
44.05,41.0,1.0,1.0,1.0
44.1,42.4944,1.0,1.0,1.0
44.15,47.4944,1.0,1.0,1.0
44.2,71.5056,1.0,1.0,1.0
44.25,73.0,1.0,1.0,1.0
44.3,96.4944,1.0,1.0,1.0
44.35,104.5056,1.0,1.0,1.0
44.4,131.5056,1.0,1.0,1.0
44.45,109.0,1.0,1.0,1.0
44.5,131.4833,1.0,1.0,1.0
44.55,130.9889,1.0,1.0,1.0
44.6,117.4944,1.0,1.0,1.0
44.65,125.4944,1.0,1.0,1.0
44.7,105.0111,1.0,1.0,1.0
44.75,67.0,1.0,1.0,1.0
44.8,67.5056,1.0,1.0,1.0
44.85,45.0111,1.0,1.0,1.0
44.9,35.0,1.0,1.0,1.0
44.95,52.0111,1.0,1.0,1.0
45.0,78.4944,1.0,1.0,1.0
45.05,140.4833,1.0,1.0,1.0
45.1,205.9889,1.0,1.0,1.0
45.15,301.9889,1.0,1.0,1.0
45.2,426.4833,1.0,1.0,1.0
45.25,582.0111,1.0,1.0,1.0
45.3,782.9556,1.0,1.0,1.0
45.35,1097.06,1.0,1.0,1.0
45.4,1347.02,1.0,1.0,1.0
45.45,1573.53,1.0,1.0,1.0
45.5,1957.04,1.0,1.0,1.0
45.55,2296.439,1.0,1.0,1.0
45.6,2524.93,1.0,1.0,1.0
45.65,2803.89,1.0,1.0,1.0
45.7,3102.01,1.0,1.0,1.0
45.75,3458.94,1.0,1.0,1.0
45.8,3601.42,1.0,1.0,1.0
45.85,3785.04,1.0,1.0,1.0
45.9,3975.94,1.0,1.0,1.0
45.95,3988.04,1.0,1.0,1.0
46.0,4069.92,1.0,1.0,1.0
46.05,3893.38,1.0,1.0,1.0
46.1,3710.439,1.0,1.0,1.0
46.15,3487.0,1.0,1.0,1.0
46.2,3404.36,1.0,1.0,1.0
46.25,3061.89,1.0,1.0,1.0
46.3,2806.89,1.0,1.0,1.0
46.35,2508.49,1.0,1.0,1.0
46.4,2003.98,1.0,1.0,1.0
46.45,1793.02,1.0,1.0,1.0
46.5,1420.51,1.0,1.0,1.0
46.55,1150.54,1.0,1.0,1.0
46.6,833.9889,1.0,1.0,1.0
46.65,575.5611,1.0,1.0,1.0
46.7,452.9889,1.0,1.0,1.0
46.75,296.0,1.0,1.0,1.0
46.8,239.4611,1.0,1.0,1.0
46.85,172.0222,1.0,1.0,1.0
46.9,173.0,1.0,1.0,1.0
46.95,199.4833,1.0,1.0,1.0
47.0,220.4833,1.0,1.0,1.0
47.05,292.9778,1.0,1.0,1.0
47.1,386.9889,1.0,1.0,1.0
47.15,402.4944,1.0,1.0,1.0
47.2,490.4722,1.0,1.0,1.0
47.25,586.4944,1.0,1.0,1.0
47.3,690.5167,1.0,1.0,1.0
47.35,710.0,1.0,1.0,1.0
47.4,750.4722,1.0,1.0,1.0
47.45,813.9778,1.0,1.0,1.0
47.5,868.4389,1.0,1.0,1.0
47.55,1043.04,1.0,1.0,1.0
47.6,1115.51,1.0,1.0,1.0
47.65,1215.98,1.0,1.0,1.0
47.7,1615.44,1.0,1.0,1.0
47.75,2392.01,1.0,1.0,1.0
47.8,4102.88,1.0,1.0,1.0
47.85,10217.2,1.0,1.0,1.0
47.9,343512,1.0,1.0,1.0
47.95,1877084.875,1.0,1.0,1.0
48.0,2900455.5,1.0,1.0,1.0
48.05,55959.9,1.0,1.0,1.0
48.1,11212.3,1.0,1.0,1.0
48.15,3888.45,1.0,1.0,1.0
48.2,1806.03,1.0,1.0,1.0
48.25,1090.51,1.0,1.0,1.0
48.3,572.9889,1.0,1.0,1.0
48.35,440.0111,1.0,1.0,1.0
48.4,266.0222,1.0,1.0,1.0
48.45,214.9889,1.0,1.0,1.0
48.5,198.5056,1.0,1.0,1.0
48.55,151.4944,1.0,1.0,1.0
48.6,149.0,1.0,1.0,1.0
48.65,132.5056,1.0,1.0,1.0
48.7,124.4944,1.0,1.0,1.0
48.75,122.5056,1.0,1.0,1.0
48.8,115.9778,1.0,1.0,1.0
48.85,106.5167,1.0,1.0,1.0
48.9,74.9889,1.0,1.0,1.0
48.95,49.5056,1.0,1.0,1.0
49.0,48.0,1.0,1.0,1.0
49.05,41.0,1.0,1.0,1.0
49.1,46.0111,1.0,1.0,1.0
49.15,24.5167,1.0,1.0,1.0
49.2,12.0,1.0,1.0,1.0
49.25,22.0,1.0,1.0,1.0
49.3,13.0,1.0,1.0,1.0
49.35,13.0,1.0,1.0,1.0
49.4,12.0,1.0,1.0,1.0
49.45,16.5056,1.0,1.0,1.0
49.5,13.0,1.0,1.0,1.0
49.55,20.4944,1.0,1.0,1.0
49.6,25.0,1.0,1.0,1.0
49.65,27.0,1.0,1.0,1.0
49.7,24.0111,1.0,1.0,1.0
49.75,27.4944,1.0,1.0,1.0
49.8,22.5056,1.0,1.0,1.0
49.85,12.0,1.0,1.0,1.0
49.9,10.5056,1.0,1.0,1.0
49.95,21.4944,1.0,1.0,1.0
50.0,13.0,1.0,1.0,1.0
50.05,8.4944,1.0,1.0,1.0
50.1,15.0,1.0,1.0,1.0
50.15,16.0,1.0,1.0,1.0
50.2,19.5056,1.0,1.0,1.0
50.25,14.0,1.0,1.0,1.0
50.3,5.0,1.0,1.0,1.0
50.35,4.0,1.0,1.0,1.0
50.4,2.5056,1.0,1.0,1.0
50.45,14.5056,1.0,1.0,1.0
50.5,2.0,1.0,1.0,1.0
50.55,19.0,1.0,1.0,1.0
50.6,15.0,1.0,1.0,1.0
50.65,16.0,1.0,1.0,1.0
50.7,1.0,1.0,1.0,1.0
50.75,12.0,1.0,1.0,1.0
50.8,13.4944,1.0,1.0,1.0
50.85,7.5056,1.0,1.0,1.0
50.9,4.5056,1.0,1.0,1.0
50.95,12.0,1.0,1.0,1.0
51.0,7.5056,1.0,1.0,1.0
51.05,8.0,1.0,1.0,1.0
51.1,5.0,1.0,1.0,1.0
51.15,5.5056,1.0,1.0,1.0
51.2,5.0,1.0,1.0,1.0
51.25,9.0,1.0,1.0,1.0
51.3,8.0,1.0,1.0,1.0
51.35,11.0,1.0,1.0,1.0
51.4,2.4944,1.0,1.0,1.0
51.45,5.4944,1.0,1.0,1.0
51.5,12.5056,1.0,1.0,1.0
51.55,7.0,1.0,1.0,1.0
51.6,16.0,1.0,1.0,1.0
51.65,12.0,1.0,1.0,1.0
51.7,7.0,1.0,1.0,1.0
51.75,5.4944,1.0,1.0,1.0
51.8,6.0,1.0,1.0,1.0
51.85,9.5056,1.0,1.0,1.0
51.9,13.4944,1.0,1.0,1.0
51.95,11.0,1.0,1.0,1.0
52.0,5.0,1.0,1.0,1.0
0.44,788356.0,1.0,1.0,1.0
0.49,830403.5,1.0,1.0,1.0
0.54,840480.5,1.0,1.0,1.0
0.59,766246,1.0,1.0,1.0
0.64,617519,1.0,1.0,1.0
0.69,442966,1.0,1.0,1.0
0.74,298915,1.0,1.0,1.0
0.79,195953,1.0,1.0,1.0
0.84,128836,1.0,1.0,1.0
0.89,87532,1.0,1.0,1.0
0.94,60723.5,1.0,1.0,1.0
0.99,43846.5,1.0,1.0,1.0
1.04,32147.502,1.0,1.0,1.0
1.09,24773.5,1.0,1.0,1.0
1.14,20064.998,1.0,1.0,1.0
1.19,17188.0,1.0,1.0,1.0
1.24,14832.002,1.0,1.0,1.0
1.29,13177.001,1.0,1.0,1.0
1.34,12012.002,1.0,1.0,1.0
1.39,10709.498,1.0,1.0,1.0
1.44,9527.0,1.0,1.0,1.0
1.49,8610.5,1.0,1.0,1.0
1.54,7595.5,1.0,1.0,1.0
1.59,6692,1.0,1.0,1.0
1.64,5589,1.0,1.0,1.0
1.69,4794.5,1.0,1.0,1.0
1.74,3872,1.0,1.0,1.0
1.79,3410.5,1.0,1.0,1.0
1.84,2980.5,1.0,1.0,1.0
1.89,2568.0,1.0,1.0,1.0
1.94,2364,1.0,1.0,1.0
1.99,2153.5,1.0,1.0,1.0
2.04,2043,1.0,1.0,1.0
2.09,1907.5,1.0,1.0,1.0
2.14,1846.5,1.0,1.0,1.0
2.19,1781.5,1.0,1.0,1.0
2.24,1771.5,1.0,1.0,1.0
2.29,1606.5,1.0,1.0,1.0
2.34,1599.5,1.0,1.0,1.0
2.39,1396,1.0,1.0,1.0
2.44,1371.5,1.0,1.0,1.0
2.49,1158.5,1.0,1.0,1.0
2.54,1135.5,1.0,1.0,1.0
2.59,1027,1.0,1.0,1.0
2.64,922.4998,1.0,1.0,1.0
2.69,831.9993,1.0,1.0,1.0
2.74,792.9999,1.0,1.0,1.0
2.79,776.0002,1.0,1.0,1.0
2.84,693.4998,1.0,1.0,1.0
2.89,681.4996,1.0,1.0,1.0
2.94,657.4998,1.0,1.0,1.0
2.99,720.0003,1.0,1.0,1.0
3.04,733.5001,1.0,1.0,1.0
3.09,698.0001,1.0,1.0,1.0
3.14,662.0,1.0,1.0,1.0
3.19,669.4999,1.0,1.0,1.0
3.24,585.0002,1.0,1.0,1.0
3.29,620.5002,1.0,1.0,1.0
3.34,593.5002,1.0,1.0,1.0
3.39,588.5002,1.0,1.0,1.0
3.44,508.5003,1.0,1.0,1.0
3.49,509.5001,1.0,1.0,1.0
3.54,506.9998,1.0,1.0,1.0
3.59,514.9997,1.0,1.0,1.0
3.64,428.5001,1.0,1.0,1.0
3.69,473.0,1.0,1.0,1.0
3.74,439.9998,1.0,1.0,1.0
3.79,448.5002,1.0,1.0,1.0
3.84,452.9998,1.0,1.0,1.0
3.89,431.9997,1.0,1.0,1.0
3.94,455.4997,1.0,1.0,1.0
3.99,465.5004,1.0,1.0,1.0
4.04,504.4995,1.0,1.0,1.0
4.09,451.9997,1.0,1.0,1.0
4.14,463.4998,1.0,1.0,1.0
4.19,487.5001,1.0,1.0,1.0
4.24,450.5001,1.0,1.0,1.0
4.29,478.5001,1.0,1.0,1.0
4.34,442.0002,1.0,1.0,1.0
4.39,406.0,1.0,1.0,1.0
4.44,433.4999,1.0,1.0,1.0
4.49,414.9999,1.0,1.0,1.0
4.5,392.4999,1.0,1.0,1.0