Folder: Analysis/XRD:XRR/SCO/22059_SCO(TS)

File: 22059_SCO(TS)_XRD.csv
#twotheta, yobs, ycal, bkg, diff
38.0,13.0,1.0,1.0,1.0
38.05,18.9889,1.0,1.0,1.0
38.1,27.9889,1.0,1.0,1.0
38.15,22.0,1.0,1.0,1.0
38.2,18.4944,1.0,1.0,1.0
38.25,24.4944,1.0,1.0,1.0
38.3,21.5056,1.0,1.0,1.0
38.35,22.0,1.0,1.0,1.0
38.4,9.0,1.0,1.0,1.0
38.45,29.4944,1.0,1.0,1.0
38.5,26.0,1.0,1.0,1.0
38.55,18.5056,1.0,1.0,1.0
38.6,23.0,1.0,1.0,1.0
38.65,21.5056,1.0,1.0,1.0
38.7,22.5056,1.0,1.0,1.0
38.75,13.0,1.0,1.0,1.0
38.8,15.5056,1.0,1.0,1.0
38.85,33.4944,1.0,1.0,1.0
38.9,29.0,1.0,1.0,1.0
38.95,20.5056,1.0,1.0,1.0
39.0,14.0,1.0,1.0,1.0
39.05,23.0,1.0,1.0,1.0
39.1,10.0222,1.0,1.0,1.0
39.15,27.4944,1.0,1.0,1.0
39.2,20.0111,1.0,1.0,1.0
39.25,31.5056,1.0,1.0,1.0
39.3,22.4944,1.0,1.0,1.0
39.35,23.0,1.0,1.0,1.0
39.4,29.0,1.0,1.0,1.0
39.45,28.0,1.0,1.0,1.0
39.5,15.0,1.0,1.0,1.0
39.55,30.0,1.0,1.0,1.0
39.6,33.9889,1.0,1.0,1.0
39.65,26.4944,1.0,1.0,1.0
39.7,27.4944,1.0,1.0,1.0
39.75,31.0111,1.0,1.0,1.0
39.8,25.0,1.0,1.0,1.0
39.85,23.0,1.0,1.0,1.0
39.9,15.0111,1.0,1.0,1.0
39.95,35.5056,1.0,1.0,1.0
40.0,23.4944,1.0,1.0,1.0
40.05,33.5056,1.0,1.0,1.0
40.1,36.0,1.0,1.0,1.0
40.15,18.0,1.0,1.0,1.0
40.2,23.0,1.0,1.0,1.0
40.25,28.0,1.0,1.0,1.0
40.3,20.4944,1.0,1.0,1.0
40.35,79.5056,1.0,1.0,1.0
40.4,30.0,1.0,1.0,1.0
40.45,20.9889,1.0,1.0,1.0
40.5,20.0,1.0,1.0,1.0
40.55,18.5056,1.0,1.0,1.0
40.6,13.0,1.0,1.0,1.0
40.65,40.4944,1.0,1.0,1.0
40.7,21.4944,1.0,1.0,1.0
40.75,23.5056,1.0,1.0,1.0
40.8,23.5056,1.0,1.0,1.0
40.85,21.0,1.0,1.0,1.0
40.9,23.0,1.0,1.0,1.0
40.95,21.4944,1.0,1.0,1.0
41.0,17.4944,1.0,1.0,1.0
41.05,23.5056,1.0,1.0,1.0
41.1,28.0,1.0,1.0,1.0
41.15,29.5056,1.0,1.0,1.0
41.2,22.4944,1.0,1.0,1.0
41.25,28.0,1.0,1.0,1.0
41.3,29.0,1.0,1.0,1.0
41.35,16.0,1.0,1.0,1.0
41.4,33.9889,1.0,1.0,1.0
41.45,19.0,1.0,1.0,1.0
41.5,37.0,1.0,1.0,1.0
41.55,27.9889,1.0,1.0,1.0
41.6,36.0,1.0,1.0,1.0
41.65,18.4944,1.0,1.0,1.0
41.7,26.4944,1.0,1.0,1.0
41.75,20.0,1.0,1.0,1.0
41.8,31.0,1.0,1.0,1.0
41.85,56.0,1.0,1.0,1.0
41.9,40.4944,1.0,1.0,1.0
41.95,32.0,1.0,1.0,1.0
42.0,38.0,1.0,1.0,1.0
42.05,29.0,1.0,1.0,1.0
42.1,29.5056,1.0,1.0,1.0
42.15,43.0,1.0,1.0,1.0
42.2,40.0,1.0,1.0,1.0
42.25,54.5056,1.0,1.0,1.0
42.3,49.0,1.0,1.0,1.0
42.35,48.0,1.0,1.0,1.0
42.4,45.5056,1.0,1.0,1.0
42.45,20.0111,1.0,1.0,1.0
42.5,35.5056,1.0,1.0,1.0
42.55,31.0,1.0,1.0,1.0
42.6,37.4944,1.0,1.0,1.0
42.65,57.0,1.0,1.0,1.0
42.7,41.4944,1.0,1.0,1.0
42.75,25.0,1.0,1.0,1.0
42.8,28.9889,1.0,1.0,1.0
42.85,50.4944,1.0,1.0,1.0
42.9,48.5056,1.0,1.0,1.0
42.95,46.0111,1.0,1.0,1.0
43.0,56.5056,1.0,1.0,1.0
43.05,45.5056,1.0,1.0,1.0
43.1,32.0,1.0,1.0,1.0
43.15,25.5056,1.0,1.0,1.0
43.2,43.0,1.0,1.0,1.0
43.25,39.0,1.0,1.0,1.0
43.3,29.4944,1.0,1.0,1.0
43.35,63.9889,1.0,1.0,1.0
43.4,62.9889,1.0,1.0,1.0
43.45,44.9889,1.0,1.0,1.0
43.5,44.4944,1.0,1.0,1.0
43.55,31.5056,1.0,1.0,1.0
43.6,53.0,1.0,1.0,1.0
43.65,60.4944,1.0,1.0,1.0
43.7,75.4944,1.0,1.0,1.0
43.75,109.0111,1.0,1.0,1.0
43.8,86.0,1.0,1.0,1.0
43.85,50.4944,1.0,1.0,1.0
43.9,40.0,1.0,1.0,1.0
43.95,65.9889,1.0,1.0,1.0
44.0,76.0111,1.0,1.0,1.0
44.05,90.5167,1.0,1.0,1.0
44.1,117.0222,1.0,1.0,1.0
44.15,125.4833,1.0,1.0,1.0
44.2,112.4944,1.0,1.0,1.0
44.25,78.0,1.0,1.0,1.0
44.3,78.0111,1.0,1.0,1.0
44.35,104.9889,1.0,1.0,1.0
44.4,173.0111,1.0,1.0,1.0
44.45,240.0111,1.0,1.0,1.0
44.5,243.4833,1.0,1.0,1.0
44.55,208.5056,1.0,1.0,1.0
44.6,169.4833,1.0,1.0,1.0
44.65,191.0,1.0,1.0,1.0
44.7,225.5056,1.0,1.0,1.0
44.75,257.4944,1.0,1.0,1.0
44.8,402.9889,1.0,1.0,1.0
44.85,452.0,1.0,1.0,1.0
44.9,461.4722,1.0,1.0,1.0
44.95,427.5167,1.0,1.0,1.0
45.0,382.4944,1.0,1.0,1.0
45.05,358.0111,1.0,1.0,1.0
45.1,482.9889,1.0,1.0,1.0
45.15,685.4833,1.0,1.0,1.0
45.2,902.4833,1.0,1.0,1.0
45.25,1080.48,1.0,1.0,1.0
45.3,1010.49,1.0,1.0,1.0
45.35,910.0111,1.0,1.0,1.0
45.4,905.0111,1.0,1.0,1.0
45.45,872.0222,1.0,1.0,1.0
45.5,1237.49,1.0,1.0,1.0
45.55,1701.04,1.0,1.0,1.0
45.6,2215.0,1.0,1.0,1.0
45.65,2470.98,1.0,1.0,1.0
45.7,2478.48,1.0,1.0,1.0
45.75,2316.99,1.0,1.0,1.0
45.8,2236.03,1.0,1.0,1.0
45.85,2562.98,1.0,1.0,1.0
45.9,3591.8,1.0,1.0,1.0
45.95,5015.37,1.0,1.0,1.0
46.0,6581.42,1.0,1.0,1.0
46.05,7448.53,1.0,1.0,1.0
46.1,7719.52,1.0,1.0,1.0
46.15,7501.53,1.0,1.0,1.0
46.2,7617.96,1.0,1.0,1.0
46.25,9909.93,1.0,1.0,1.0
46.3,15019.8,1.0,1.0,1.0
46.35,23659.8,1.0,1.0,1.0
46.4,34524.8,1.0,1.0,1.0
46.45,46018.5,1.0,1.0,1.0
46.5,53989.043,1.0,1.0,1.0
46.55,56333.2,1.0,1.0,1.0
46.6,51443.6,1.0,1.0,1.0
46.65,40558.582,1.0,1.0,1.0
46.7,27107.8,1.0,1.0,1.0
46.75,17245.9,1.0,1.0,1.0
46.8,29739.4,1.0,1.0,1.0
46.85,155389,1.0,1.0,1.0
46.9,11777205.0,1.0,1.0,1.0
46.95,945954.875,1.0,1.0,1.0
47.0,108009,1.0,1.0,1.0
47.05,29301,1.0,1.0,1.0
47.1,14924.5,1.0,1.0,1.0
47.15,11629.4,1.0,1.0,1.0
47.2,9031.09,1.0,1.0,1.0
47.25,6280.08,1.0,1.0,1.0
47.3,3686.61,1.0,1.0,1.0
47.35,1756.54,1.0,1.0,1.0
47.4,753.0222,1.0,1.0,1.0
47.45,631.4833,1.0,1.0,1.0
47.5,933.5056,1.0,1.0,1.0
47.55,1141.51,1.0,1.0,1.0
47.6,1126.56,1.0,1.0,1.0
47.65,871.0111,1.0,1.0,1.0
47.7,495.5278,1.0,1.0,1.0
47.75,229.0444,1.0,1.0,1.0
47.8,164.9889,1.0,1.0,1.0
47.85,269.0,1.0,1.0,1.0
47.9,380.5056,1.0,1.0,1.0
47.95,455.5167,1.0,1.0,1.0
48.0,368.4722,1.0,1.0,1.0
48.05,276.9778,1.0,1.0,1.0
48.1,158.4944,1.0,1.0,1.0
48.15,102.5056,1.0,1.0,1.0
48.2,115.0111,1.0,1.0,1.0
48.25,224.0,1.0,1.0,1.0
48.3,316.0111,1.0,1.0,1.0
48.35,323.5278,1.0,1.0,1.0
48.4,271.9778,1.0,1.0,1.0
48.45,156.0222,1.0,1.0,1.0
48.5,108.4833,1.0,1.0,1.0
48.55,98.0,1.0,1.0,1.0
48.6,135.4944,1.0,1.0,1.0
48.65,211.0,1.0,1.0,1.0
48.7,255.0111,1.0,1.0,1.0
48.75,263.9556,1.0,1.0,1.0
48.8,224.4944,1.0,1.0,1.0
48.85,142.0,1.0,1.0,1.0
48.9,106.0111,1.0,1.0,1.0
48.95,75.5056,1.0,1.0,1.0
49.0,104.5278,1.0,1.0,1.0
49.05,159.5056,1.0,1.0,1.0
49.1,200.0111,1.0,1.0,1.0
49.15,198.9889,1.0,1.0,1.0
49.2,182.4944,1.0,1.0,1.0
49.25,128.4833,1.0,1.0,1.0
49.3,81.5056,1.0,1.0,1.0
49.35,61.4944,1.0,1.0,1.0
49.4,67.5056,1.0,1.0,1.0
49.45,104.9778,1.0,1.0,1.0
49.5,115.9778,1.0,1.0,1.0
49.55,117.0222,1.0,1.0,1.0
49.6,109.5056,1.0,1.0,1.0
49.65,73.9889,1.0,1.0,1.0
49.7,51.9889,1.0,1.0,1.0
49.75,42.0,1.0,1.0,1.0
49.8,29.4833,1.0,1.0,1.0
49.85,68.5167,1.0,1.0,1.0
49.9,66.4944,1.0,1.0,1.0
49.95,71.9889,1.0,1.0,1.0
50.0,62.4944,1.0,1.0,1.0
50.05,45.9889,1.0,1.0,1.0
50.1,41.5056,1.0,1.0,1.0
50.15,22.9889,1.0,1.0,1.0
50.2,24.0,1.0,1.0,1.0
50.25,40.0,1.0,1.0,1.0
50.3,20.0,1.0,1.0,1.0
50.35,38.4944,1.0,1.0,1.0
50.4,47.4944,1.0,1.0,1.0
50.45,34.0,1.0,1.0,1.0
50.5,22.5056,1.0,1.0,1.0
50.55,8.0,1.0,1.0,1.0
50.6,20.0,1.0,1.0,1.0
50.65,20.0,1.0,1.0,1.0
50.7,22.5056,1.0,1.0,1.0
50.75,9.0,1.0,1.0,1.0
50.8,14.0,1.0,1.0,1.0
50.85,20.4944,1.0,1.0,1.0
50.9,17.0111,1.0,1.0,1.0
50.95,20.0,1.0,1.0,1.0
51.0,8.0,1.0,1.0,1.0
51.05,13.5056,1.0,1.0,1.0
51.1,20.0,1.0,1.0,1.0
51.15,8.0,1.0,1.0,1.0
51.2,14.0,1.0,1.0,1.0
51.25,19.4944,1.0,1.0,1.0
51.3,13.0,1.0,1.0,1.0
51.35,14.0,1.0,1.0,1.0
51.4,14.0,1.0,1.0,1.0
51.45,0.5056,1.0,1.0,1.0
51.5,9.4944,1.0,1.0,1.0
51.55,11.0,1.0,1.0,1.0
51.6,21.0,1.0,1.0,1.0
51.65,5.4944,1.0,1.0,1.0
51.7,17.0,1.0,1.0,1.0
51.75,14.0,1.0,1.0,1.0
51.8,22.5056,1.0,1.0,1.0
51.85,18.4944,1.0,1.0,1.0
51.9,15.0,1.0,1.0,1.0
51.95,18.0,1.0,1.0,1.0
52.0,14.0,1.0,1.0,1.0