Folder: Analysis/XRD:XRR/SCO/22075_SCOT

File: 22075_SCOT_XRD.csv
#twotheta, yobs, ycal, bkg, diff
42.0,9.4944,1.0,1.0,1.0
42.04,20.0,1.0,1.0,1.0
42.08,7.0,1.0,1.0,1.0
42.12,12.5056,1.0,1.0,1.0
42.16,10.4944,1.0,1.0,1.0
42.2,20.0,1.0,1.0,1.0
42.24,7.4944,1.0,1.0,1.0
42.28,12.5056,1.0,1.0,1.0
42.32,8.0,1.0,1.0,1.0
42.36,21.0,1.0,1.0,1.0
42.4,17.4944,1.0,1.0,1.0
42.44,7.0,1.0,1.0,1.0
42.48,4.5056,1.0,1.0,1.0
42.52,5.0,1.0,1.0,1.0
42.56,19.0,1.0,1.0,1.0
42.6,7.4944,1.0,1.0,1.0
42.64,18.0,1.0,1.0,1.0
42.68,10.9889,1.0,1.0,1.0
42.72,4.0,1.0,1.0,1.0
42.76,16.0,1.0,1.0,1.0
42.8,11.0,1.0,1.0,1.0
42.84,13.5056,1.0,1.0,1.0
42.88,22.4944,1.0,1.0,1.0
42.92,14.5056,1.0,1.0,1.0
42.96,18.0,1.0,1.0,1.0
43.0,22.0,1.0,1.0,1.0
43.04,29.0,1.0,1.0,1.0
43.08,25.0,1.0,1.0,1.0
43.12,23.0,1.0,1.0,1.0
43.16,20.5056,1.0,1.0,1.0
43.2,16.0,1.0,1.0,1.0
43.24,14.4944,1.0,1.0,1.0
43.28,16.5056,1.0,1.0,1.0
43.32,22.0,1.0,1.0,1.0
43.36,10.5056,1.0,1.0,1.0
43.4,13.0,1.0,1.0,1.0
43.44,22.5056,1.0,1.0,1.0
43.48,12.0,1.0,1.0,1.0
43.52,11.5056,1.0,1.0,1.0
43.56,19.0,1.0,1.0,1.0
43.6,17.0,1.0,1.0,1.0
43.64,30.0,1.0,1.0,1.0
43.68,22.4944,1.0,1.0,1.0
43.72,26.9889,1.0,1.0,1.0
43.76,31.0,1.0,1.0,1.0
43.8,43.5056,1.0,1.0,1.0
43.84,45.4944,1.0,1.0,1.0
43.88,58.5056,1.0,1.0,1.0
43.92,65.0,1.0,1.0,1.0
43.96,53.4944,1.0,1.0,1.0
44.0,40.0,1.0,1.0,1.0
44.04,41.4944,1.0,1.0,1.0
44.08,35.9889,1.0,1.0,1.0
44.12,27.4944,1.0,1.0,1.0
44.16,19.0,1.0,1.0,1.0
44.2,28.0,1.0,1.0,1.0
44.24,13.0,1.0,1.0,1.0
44.28,16.0,1.0,1.0,1.0
44.32,23.0,1.0,1.0,1.0
44.36,28.0,1.0,1.0,1.0
44.4,23.9889,1.0,1.0,1.0
44.44,28.0111,1.0,1.0,1.0
44.48,57.0,1.0,1.0,1.0
44.52,58.5056,1.0,1.0,1.0
44.56,68.4944,1.0,1.0,1.0
44.6,101.9889,1.0,1.0,1.0
44.64,107.0111,1.0,1.0,1.0
44.68,110.5056,1.0,1.0,1.0
44.72,102.4833,1.0,1.0,1.0
44.76,101.0111,1.0,1.0,1.0
44.8,106.0222,1.0,1.0,1.0
44.84,72.5056,1.0,1.0,1.0
44.88,62.4944,1.0,1.0,1.0
44.92,42.5056,1.0,1.0,1.0
44.96,21.5056,1.0,1.0,1.0
45.0,18.0,1.0,1.0,1.0
45.04,34.5056,1.0,1.0,1.0
45.08,22.0,1.0,1.0,1.0
45.12,42.9889,1.0,1.0,1.0
45.16,76.4722,1.0,1.0,1.0
45.2,104.4944,1.0,1.0,1.0
45.24,140.5056,1.0,1.0,1.0
45.28,178.0,1.0,1.0,1.0
45.32,218.0222,1.0,1.0,1.0
45.36,244.0444,1.0,1.0,1.0
45.4,266.5056,1.0,1.0,1.0
45.44,284.4944,1.0,1.0,1.0
45.48,245.0111,1.0,1.0,1.0
45.52,250.5056,1.0,1.0,1.0
45.56,200.9778,1.0,1.0,1.0
45.6,171.0111,1.0,1.0,1.0
45.64,146.0,1.0,1.0,1.0
45.68,114.5056,1.0,1.0,1.0
45.72,95.0,1.0,1.0,1.0
45.76,161.9778,1.0,1.0,1.0
45.8,253.0,1.0,1.0,1.0
45.84,433.0222,1.0,1.0,1.0
45.88,689.5167,1.0,1.0,1.0
45.92,1108.0,1.0,1.0,1.0
45.96,1722.48,1.0,1.0,1.0
46.0,2407.45,1.0,1.0,1.0
46.04,3432.439,1.0,1.0,1.0
46.08,4567.48,1.0,1.0,1.0
46.12,5979.34,1.0,1.0,1.0
46.16,7724.34,1.0,1.0,1.0
46.2,10204.6,1.0,1.0,1.0
46.24,13424.583,1.0,1.0,1.0
46.28,18092.877,1.0,1.0,1.0
46.32,25820.8,1.0,1.0,1.0
46.36,46488.9,1.0,1.0,1.0
46.4,134874,1.0,1.0,1.0
46.44,670357.0,1.0,1.0,1.0
46.48,22129034.0,1.0,1.0,1.0
46.52,497895,1.0,1.0,1.0
46.56,76540.4,1.0,1.0,1.0
46.6,15210,1.0,1.0,1.0
46.64,5432.189,1.0,1.0,1.0
46.68,3192.439,1.0,1.0,1.0
46.72,2658.439,1.0,1.0,1.0
46.76,2433.04,1.0,1.0,1.0
46.8,2183.02,1.0,1.0,1.0
46.84,2044.48,1.0,1.0,1.0
46.88,1875.49,1.0,1.0,1.0
46.92,1516.01,1.0,1.0,1.0
46.96,1310.0,1.0,1.0,1.0
47.0,1066.57,1.0,1.0,1.0
47.04,879.0667,1.0,1.0,1.0
47.08,605.0222,1.0,1.0,1.0
47.12,486.0,1.0,1.0,1.0
47.16,321.0,1.0,1.0,1.0
47.2,215.4722,1.0,1.0,1.0
47.24,124.0222,1.0,1.0,1.0
47.28,79.4944,1.0,1.0,1.0
47.32,67.0111,1.0,1.0,1.0
47.36,53.0,1.0,1.0,1.0
47.4,73.0,1.0,1.0,1.0
47.44,92.4944,1.0,1.0,1.0
47.48,106.5056,1.0,1.0,1.0
47.52,138.4944,1.0,1.0,1.0
47.56,140.9889,1.0,1.0,1.0
47.6,134.9889,1.0,1.0,1.0
47.64,150.0,1.0,1.0,1.0
47.68,162.9778,1.0,1.0,1.0
47.72,143.9889,1.0,1.0,1.0
47.76,122.0,1.0,1.0,1.0
47.8,101.0,1.0,1.0,1.0
47.84,80.0,1.0,1.0,1.0
47.88,51.5056,1.0,1.0,1.0
47.92,45.0,1.0,1.0,1.0
47.96,39.5056,1.0,1.0,1.0
48.0,25.5056,1.0,1.0,1.0
48.04,29.0111,1.0,1.0,1.0
48.08,13.0,1.0,1.0,1.0
48.12,15.9889,1.0,1.0,1.0
48.16,7.4944,1.0,1.0,1.0
48.2,18.4944,1.0,1.0,1.0
48.24,43.0,1.0,1.0,1.0
48.28,30.5056,1.0,1.0,1.0
48.32,38.0111,1.0,1.0,1.0
48.36,67.0,1.0,1.0,1.0
48.4,33.9889,1.0,1.0,1.0
48.44,42.0,1.0,1.0,1.0
48.48,53.0,1.0,1.0,1.0
48.52,40.4944,1.0,1.0,1.0
48.56,37.5056,1.0,1.0,1.0
48.6,31.0,1.0,1.0,1.0
48.64,22.5056,1.0,1.0,1.0
48.68,20.5056,1.0,1.0,1.0
48.72,16.0,1.0,1.0,1.0
48.76,21.0,1.0,1.0,1.0
48.8,10.0,1.0,1.0,1.0
48.84,8.5056,1.0,1.0,1.0
48.88,3.5056,1.0,1.0,1.0
48.92,20.4944,1.0,1.0,1.0
48.96,16.4944,1.0,1.0,1.0
49.0,10.0,1.0,1.0,1.0
49.04,8.0,1.0,1.0,1.0
49.08,6.4944,1.0,1.0,1.0
49.12,7.0,1.0,1.0,1.0
49.16,19.0111,1.0,1.0,1.0
49.2,23.0,1.0,1.0,1.0
49.24,26.0,1.0,1.0,1.0
49.28,23.9889,1.0,1.0,1.0
49.32,17.0,1.0,1.0,1.0
49.36,19.0,1.0,1.0,1.0
49.4,18.0,1.0,1.0,1.0
49.44,10.0,1.0,1.0,1.0
49.48,3.0,1.0,1.0,1.0
49.52,7.0,1.0,1.0,1.0
49.56,4.0,1.0,1.0,1.0
49.6,5.0,1.0,1.0,1.0
49.64,11.0,1.0,1.0,1.0
49.68,6.4944,1.0,1.0,1.0
49.72,9.0,1.0,1.0,1.0
49.76,8.0,1.0,1.0,1.0
49.8,13.4944,1.0,1.0,1.0
49.84,6.0,1.0,1.0,1.0
49.88,2.0,1.0,1.0,1.0
49.92,12.0,1.0,1.0,1.0
49.96,12.0,1.0,1.0,1.0
50.0,2.0,1.0,1.0,1.0
50.04,7.0,1.0,1.0,1.0
50.08,6.0,1.0,1.0,1.0
50.12,3.0,1.0,1.0,1.0
50.16,14.0,1.0,1.0,1.0
50.2,6.4944,1.0,1.0,1.0
50.24,2.0,1.0,1.0,1.0
50.28,6.0,1.0,1.0,1.0
50.32,7.4944,1.0,1.0,1.0
50.36,6.0,1.0,1.0,1.0
50.4,12.0,1.0,1.0,1.0
50.44,5.0,1.0,1.0,1.0
50.48,7.0,1.0,1.0,1.0
50.52,3.0,1.0,1.0,1.0
50.56,4.0,1.0,1.0,1.0
50.6,4.0,1.0,1.0,1.0
50.64,6.4944,1.0,1.0,1.0
50.68,9.0,1.0,1.0,1.0
50.72,3.0,1.0,1.0,1.0
50.76,4.0,1.0,1.0,1.0
50.8,10.0,1.0,1.0,1.0
50.84,7.0,1.0,1.0,1.0
50.88,2.0,1.0,1.0,1.0
50.92,0.0,1.0,1.0,1.0
50.96,4.0,1.0,1.0,1.0
51.0,6.0,1.0,1.0,1.0
51.04,5.0,1.0,1.0,1.0
51.08,6.0,1.0,1.0,1.0
51.12,0.0,1.0,1.0,1.0
51.16,2.0,1.0,1.0,1.0
51.2,0.0,1.0,1.0,1.0
51.24,8.0,1.0,1.0,1.0
51.28,17.0,1.0,1.0,1.0
51.32,4.0,1.0,1.0,1.0
51.36,4.0111,1.0,1.0,1.0
51.4,4.0,1.0,1.0,1.0
51.44,0.0,1.0,1.0,1.0
51.48,5.0,1.0,1.0,1.0
51.52,5.0,1.0,1.0,1.0
51.56,6.0,1.0,1.0,1.0
51.6,5.0,1.0,1.0,1.0
51.64,0.0,1.0,1.0,1.0
51.68,3.4944,1.0,1.0,1.0
51.72,3.0,1.0,1.0,1.0
51.76,14.0,1.0,1.0,1.0
51.8,2.0,1.0,1.0,1.0
51.84,8.0,1.0,1.0,1.0
51.88,4.0,1.0,1.0,1.0
51.92,10.0,1.0,1.0,1.0
51.96,3.0,1.0,1.0,1.0
52.0,0.0,1.0,1.0,1.0