Folder: Analysis/XRD:XRR/SCO/22102_S(CT)OL (part 2)

File: 22102_S(CT)OL_XRD_notAnn_001.csv
#twotheta, yobs, ycal, bkg, diff
16.0,0.0,1.0,1.0,1.0
16.06,5.0,1.0,1.0,1.0
16.12,0.0,1.0,1.0,1.0
16.18,0.0,1.0,1.0,1.0
16.24,1.0,1.0,1.0,1.0
16.3,0.0,1.0,1.0,1.0
16.36,0.0,1.0,1.0,1.0
16.42,4.0,1.0,1.0,1.0
16.48,0.0,1.0,1.0,1.0
16.54,0.0,1.0,1.0,1.0
16.6,4.0,1.0,1.0,1.0
16.66,0.0,1.0,1.0,1.0
16.72,2.0,1.0,1.0,1.0
16.78,3.0,1.0,1.0,1.0
16.84,2.0,1.0,1.0,1.0
16.9,0.0,1.0,1.0,1.0
16.96,2.0,1.0,1.0,1.0
17.02,5.0,1.0,1.0,1.0
17.08,0.0,1.0,1.0,1.0
17.14,1.0,1.0,1.0,1.0
17.2,3.0,1.0,1.0,1.0
17.26,2.0,1.0,1.0,1.0
17.32,0.0,1.0,1.0,1.0
17.38,2.0,1.0,1.0,1.0
17.44,0.0,1.0,1.0,1.0
17.5,2.0,1.0,1.0,1.0
17.56,5.5024,1.0,1.0,1.0
17.62,3.0,1.0,1.0,1.0
17.68,2.0,1.0,1.0,1.0
17.74,2.0,1.0,1.0,1.0
17.8,4.0,1.0,1.0,1.0
17.86,4.0,1.0,1.0,1.0
17.92,2.0,1.0,1.0,1.0
17.98,0.0,1.0,1.0,1.0
18.04,3.0,1.0,1.0,1.0
18.1,0.0,1.0,1.0,1.0
18.16,0.0,1.0,1.0,1.0
18.22,0.0,1.0,1.0,1.0
18.28,3.0,1.0,1.0,1.0
18.34,0.0,1.0,1.0,1.0
18.4,0.0,1.0,1.0,1.0
18.46,1.0,1.0,1.0,1.0
18.52,0.0,1.0,1.0,1.0
18.58,2.0,1.0,1.0,1.0
18.64,0.0,1.0,1.0,1.0
18.7,0.0,1.0,1.0,1.0
18.76,4.0,1.0,1.0,1.0
18.82,4.0,1.0,1.0,1.0
18.88,2.0,1.0,1.0,1.0
18.94,0.0,1.0,1.0,1.0
19.0,2.0,1.0,1.0,1.0
19.06,0.0,1.0,1.0,1.0
19.12,0.0,1.0,1.0,1.0
19.18,2.0,1.0,1.0,1.0
19.24,0.0,1.0,1.0,1.0
19.3,2.5008,1.0,1.0,1.0
19.36,2.0,1.0,1.0,1.0
19.42,2.0,1.0,1.0,1.0
19.48,5.0,1.0,1.0,1.0
19.54,0.0,1.0,1.0,1.0
19.6,2.0,1.0,1.0,1.0
19.66,0.0,1.0,1.0,1.0
19.72,3.0,1.0,1.0,1.0
19.78,1.4992,1.0,1.0,1.0
19.84,4.0,1.0,1.0,1.0
19.9,0.0,1.0,1.0,1.0
19.96,0.0,1.0,1.0,1.0
20.02,5.0,1.0,1.0,1.0
20.08,7.4992,1.0,1.0,1.0
20.14,3.0,1.0,1.0,1.0
20.2,0.0,1.0,1.0,1.0
20.26,1.5008,1.0,1.0,1.0
20.32,3.0,1.0,1.0,1.0
20.38,4.0,1.0,1.0,1.0
20.44,0.0,1.0,1.0,1.0
20.5,0.4992,1.0,1.0,1.0
20.56,3.0,1.0,1.0,1.0
20.62,1.4992,1.0,1.0,1.0
20.68,2.0,1.0,1.0,1.0
20.74,0.0,1.0,1.0,1.0
20.8,0.0,1.0,1.0,1.0
20.86,5.0,1.0,1.0,1.0
20.92,0.0,1.0,1.0,1.0
20.98,0.0,1.0,1.0,1.0
21.04,4.0,1.0,1.0,1.0
21.1,7.0,1.0,1.0,1.0
21.16,3.0,1.0,1.0,1.0
21.22,0.0,1.0,1.0,1.0
21.28,0.0,1.0,1.0,1.0
21.34,2.0,1.0,1.0,1.0
21.4,2.4992,1.0,1.0,1.0
21.46,4.0,1.0,1.0,1.0
21.52,8.0,1.0,1.0,1.0
21.58,9.0016,1.0,1.0,1.0
21.64,8.0,1.0,1.0,1.0
21.7,6.0,1.0,1.0,1.0
21.76,5.0,1.0,1.0,1.0
21.82,4.0,1.0,1.0,1.0
21.88,3.0,1.0,1.0,1.0
21.94,8.5008,1.0,1.0,1.0
22.0,8.4992,1.0,1.0,1.0
22.06,3.0,1.0,1.0,1.0
22.12,16.0,1.0,1.0,1.0
22.18,24.0,1.0,1.0,1.0
22.24,5.0,1.0,1.0,1.0
22.3,15.5008,1.0,1.0,1.0
22.36,33.0016,1.0,1.0,1.0
22.42,70.0,1.0,1.0,1.0
22.48,151.4976,1.0,1.0,1.0
22.54,187.0016,1.0,1.0,1.0
22.6,259.9984,1.0,1.0,1.0
22.66,335.5008,1.0,1.0,1.0
22.72,286.9969,1.0,1.0,1.0
22.78,277.9984,1.0,1.0,1.0
22.84,166.5039,1.0,1.0,1.0
22.9,145.4976,1.0,1.0,1.0
22.96,159.0,1.0,1.0,1.0
23.02,165.9984,1.0,1.0,1.0
23.08,271.0,1.0,1.0,1.0
23.14,399.9937,1.0,1.0,1.0
23.2,519.5039,1.0,1.0,1.0
23.26,743.9984,1.0,1.0,1.0
23.32,1948.99,1.0,1.0,1.0
23.38,13858.9,1.0,1.0,1.0
23.44,1911988.125,1.0,1.0,1.0
23.5,1640876.875,1.0,1.0,1.0
23.56,21815.7,1.0,1.0,1.0
23.62,2886.51,1.0,1.0,1.0
23.68,945.9968,1.0,1.0,1.0
23.74,432.9953,1.0,1.0,1.0
23.8,260.9984,1.0,1.0,1.0
23.86,161.5024,1.0,1.0,1.0
23.92,100.9984,1.0,1.0,1.0
23.98,87.4992,1.0,1.0,1.0
24.04,68.0,1.0,1.0,1.0
24.1,69.0,1.0,1.0,1.0
24.16,49.0,1.0,1.0,1.0
24.22,7.0,1.0,1.0,1.0
24.28,32.5008,1.0,1.0,1.0
24.34,13.9984,1.0,1.0,1.0
24.4,24.9984,1.0,1.0,1.0
24.46,16.0,1.0,1.0,1.0
24.52,23.0,1.0,1.0,1.0
24.58,6.0,1.0,1.0,1.0
24.64,5.4992,1.0,1.0,1.0
24.7,7.0,1.0,1.0,1.0
24.76,2.0,1.0,1.0,1.0
24.82,5.0,1.0,1.0,1.0
24.88,2.0,1.0,1.0,1.0
24.94,11.0,1.0,1.0,1.0
25.0,6.0,1.0,1.0,1.0
25.06,5.4992,1.0,1.0,1.0
25.12,0.0,1.0,1.0,1.0
25.18,6.0,1.0,1.0,1.0
25.24,21.0,1.0,1.0,1.0
25.3,7.0,1.0,1.0,1.0
25.36,0.0,1.0,1.0,1.0
25.42,2.0,1.0,1.0,1.0
25.48,5.0,1.0,1.0,1.0
25.54,2.0,1.0,1.0,1.0
25.6,3.5008,1.0,1.0,1.0
25.66,2.0,1.0,1.0,1.0
25.72,2.0,1.0,1.0,1.0
25.78,0.0,1.0,1.0,1.0
25.84,2.0,1.0,1.0,1.0
25.9,0.0,1.0,1.0,1.0
25.96,12.0016,1.0,1.0,1.0
26.02,2.0,1.0,1.0,1.0
26.08,3.0,1.0,1.0,1.0
26.14,0.0,1.0,1.0,1.0
26.2,6.4992,1.0,1.0,1.0
26.26,2.0,1.0,1.0,1.0
26.32,0.0,1.0,1.0,1.0
26.38,0.0,1.0,1.0,1.0
26.44,1.0,1.0,1.0,1.0
26.5,0.0,1.0,1.0,1.0
26.56,0.0,1.0,1.0,1.0
26.62,2.0,1.0,1.0,1.0
26.68,8.0,1.0,1.0,1.0
26.74,0.0,1.0,1.0,1.0
26.8,0.0,1.0,1.0,1.0
26.86,2.0,1.0,1.0,1.0
26.92,0.5008,1.0,1.0,1.0
26.98,2.0,1.0,1.0,1.0
27.04,0.0,1.0,1.0,1.0
27.1,2.0,1.0,1.0,1.0
27.16,7.0,1.0,1.0,1.0
27.22,6.0,1.0,1.0,1.0
27.28,6.0,1.0,1.0,1.0
27.34,8.0,1.0,1.0,1.0
27.4,6.0,1.0,1.0,1.0
27.46,3.0,1.0,1.0,1.0
27.52,3.0,1.0,1.0,1.0
27.58,1.0,1.0,1.0,1.0
27.64,2.0,1.0,1.0,1.0
27.7,0.0,1.0,1.0,1.0
27.76,5.0,1.0,1.0,1.0
27.82,0.0,1.0,1.0,1.0
27.88,3.0,1.0,1.0,1.0
27.94,0.0,1.0,1.0,1.0
28.0,0.0,1.0,1.0,1.0
28.06,0.0,1.0,1.0,1.0
28.12,0.0,1.0,1.0,1.0
28.18,2.0,1.0,1.0,1.0
28.24,2.0,1.0,1.0,1.0
28.3,4.5008,1.0,1.0,1.0
28.36,2.0,1.0,1.0,1.0
28.42,0.0,1.0,1.0,1.0
28.48,0.0,1.0,1.0,1.0
28.54,0.0,1.0,1.0,1.0
28.6,2.0,1.0,1.0,1.0
28.66,2.4992,1.0,1.0,1.0
28.72,0.0,1.0,1.0,1.0
28.78,2.0,1.0,1.0,1.0
28.84,5.0,1.0,1.0,1.0
28.9,0.0,1.0,1.0,1.0
28.96,0.0,1.0,1.0,1.0
29.02,2.0,1.0,1.0,1.0
29.08,0.0,1.0,1.0,1.0
29.14,0.0,1.0,1.0,1.0
29.2,2.0,1.0,1.0,1.0
29.26,0.0,1.0,1.0,1.0
29.32,6.0,1.0,1.0,1.0
29.38,0.5008,1.0,1.0,1.0
29.44,5.0,1.0,1.0,1.0
29.5,2.0,1.0,1.0,1.0
29.56,1.4976,1.0,1.0,1.0
29.62,4.0,1.0,1.0,1.0
29.68,5.0,1.0,1.0,1.0
29.74,0.0,1.0,1.0,1.0
29.8,4.0,1.0,1.0,1.0
29.86,0.4992,1.0,1.0,1.0
29.92,0.0,1.0,1.0,1.0
29.98,2.0,1.0,1.0,1.0
30.04,4.0,1.0,1.0,1.0
30.1,0.0,1.0,1.0,1.0
30.16,0.0,1.0,1.0,1.0
30.22,0.0,1.0,1.0,1.0
30.28,0.0,1.0,1.0,1.0
30.34,0.0,1.0,1.0,1.0
30.4,0.0,1.0,1.0,1.0
30.46,0.0,1.0,1.0,1.0
30.52,0.0,1.0,1.0,1.0
30.58,0.0,1.0,1.0,1.0
30.64,0.0,1.0,1.0,1.0
30.7,0.0,1.0,1.0,1.0
30.76,0.0,1.0,1.0,1.0
30.82,4.0,1.0,1.0,1.0
30.88,0.0,1.0,1.0,1.0
30.94,0.0,1.0,1.0,1.0
31.0,0.0,1.0,1.0,1.0

File: 22102_S(CT)OL_XRD_notAnn_001_2-Theta_Omega.asc
*TYPE		=  Raw
*CLASS		=  ASCII CLASS
*SAMPLE		=
*COMMENT	=
*FNAME		=  22102_S(CT)OL_XRD_notAnn_001_2-Theta_Omega.asc
*DATE		=  28-Jun-22 03:41

*GROUP_COUNT	=  1
*GONIO		=  SmartLab(In-plane), 0.000000
*ATTACHMENT	=  Z-Phi Stage
*ASC		=  0, 0, 0.000000, 0.000000
*I_MONOCHRO	=  Ge(220)x2, 0.000000
*FILTER		=  None
*C_MONOCHRO	=  None, 0.000000
*SLIT_NAME	=  0, Incident slit
*SLIT_NAME	=  1, Receiving slit # 1
*SLIT_NAME	=  2, Receiving slit # 2
*COUNTER	=  D/teX Ultra 250, 0
*POS_FORMAT	=  0
*SCAN_AXIS	=  2Theta/Omega
*MEAS_MODE	=  Continuous Scanning
*TARGET		=  29
*XRAY_CHAR	=  K-ALPHA1
*WAVE_LENGTH1	=  1.54059
*WAVE_LENGTH2	=  1.54441
*THICKNESS	=  0, 0.000000
*MU		=  0, 0.000000
*SCAN_MODE	=  2Theta/Omega
*SPEED_DIM	=  sec./step
*XUNIT		=  deg.
*YUNIT		=  counts
*SCALE_MODE	=  1
*REP_COUNT	=  0
*SE_COUNT	=  0
*STD_MATERIAL	=  Unknown, Unknown, 0.000000, 0.000000, 0.000000, 0.000000, 0.000000, 0.000000
*LATT_CONS	=  0, Unknown, Unknown, 0.000000, 0.000000, 0.000000, 0.000000, 0.000000, 0.000000
*SEC_COUNT	=  1
*TSPEC_SIZE	=  0
*EXTRA_SIZE	=  0
*MEMO		=

*BEGIN
*GROUP		=  0
*START		=  16
*STOP		=  31
*STEP		=  0.01
*OFFSET		=  0.084
*SPEED		=  28.5293
*SLIT_SPEC	=  0, 0.400mm, 0.4, 0.000000
*SLIT_SPEC	=  1, 0.400mm, 0.4, 0.000000
*SLIT_SPEC	=  2, 0.400mm, 0.4, 0.000000
*KV		=  40
*MA		=  30
*LOW		=  0.000000
*HIGH		=  0.000000
*CTEMPER	=  0, 0.000000
*CTEMPER	=  1, 0.000000
*CTEMPER	=  2, 0.000000
*PAREX		=  0, 0.000000
*PAREX		=  1, 0.000000
*PAREX		=  2, 0.000000
*PAREX		=  3, 0.000000
*PAREX		=  4, 0.000000
*PAREX		=  5, 0.000000
*PAREX		=  6, 0.000000
*PAREX		=  7, 0.000000
*PAREX		=  8, 0.000000
*PAREX		=  9, 0.000000
*PAREX		=  10, 0.000000
*PAREX		=  11, 0.000000
*PAREX		=  12, 0.000000
*PAREX		=  13, 0.000000
*PAREX		=  14, 0.000000
*PAREX		=  15, 0.000000
*FULL_SCALE	=  233032
*INDEX		=  0, 0, 0
*COUNT		=  1501
0.000000, 2, 1, 2
3, 5, 0.000000, 0.000000
13, 6, 0.000000, 0.000000
1, 0.000000, 2, 0.000000
0.000000, 5, 0.000000, 3
0.000000, 1, 4, 0.000000
0.000000, 2, 51, 0.000000
4, 2, 0.000000, 3
0.000000, 0.000000, 0.000000, 4
2, 0.000000, 0.000000, 2
0.000000, 0.000000, 0.000000, 4
2, 0.000000, 0.000000, 2
2, 0.000000, 2, 0.000000
0.000000, 2, 0.000000, 6
2, 1, 1, 3
3, 0.000000, 0.000000, 2
2, 0.000000, 0.000000, 3
0.000000, 2, 2, 3
0.000000, 0.000000, 2.49921, 0.500786
4, 0.000000, 4, 1.49764
4.49921, 0.500786, 3, 0.000000
2, 0.000000, 4, 0.000000
2, 2, 0.000000, 3
1, 0.000000, 4, 2
2, 0.000000, 0.000000, 4.49921
2, 2, 0.000000, 0.000000
2, 0.000000, 0.000000, 2
0.000000, 4, 0.000000, 2
0.000000, 2, 2, 2
3, 0.000000, 0.000000, 2
0.000000, 2, 0.000000, 2
2, 1, 2, 0.000000
0.000000, 0.000000, 2, 0.000000
0.000000, 0.000000, 1.49921, 0.500786
0.000000, 6, 0.000000, 3
7, 2, 4, 0.000000
2, 2, 2, 3
5.50079, 2, 6, 4
1.49921, 0.500786, 0.000000, 2
0.000000, 2, 0.000000, 0.000000
0.000000, 2, 0.000000, 0.000000
0.000000, 0.499214, 2.50079, 0.000000
2, 0.000000, 0.000000, 0.000000
0.000000, 3, 5, 2
0.000000, 2, 0.000000, 2
2, 3, 4, 8
0.000000, 5, 0.000000, 2
0.000000, 4, 1.49921, 0.500786
4, 6, 0.000000, 1
0.000000, 0.000000, 2, 2
2, 0.000000, 5, 2
7.49921, 2.50079, 0.000000, 2
0.000000, 0.000000, 2, 0.000000
3, 4.49921, 1.50079, 5
3, 5, 0.000000, 4
0.000000, 2, 2, 0.000000
1, 6, 0.499214, 2.50079
3, 2, 6, 0.000000
2, 2, 2, 2
6, 1, 0.000000, 2
0.000000, 7, 0.000000, 4
5, 2, 5, 0.000000
0.000000, 0.000000, 0.000000, 6.49921
4, 0.000000, 2, 0.000000
2, 0.000000, 0.000000, 4
1, 0.000000, 0.000000, 6
0.000000, 5, 2, 4
0.000000, 2, 0.000000, 2
4, 6, 4, 10
8, 9, 7, 9.49921
11, 9, 2.99843, 15.0016
12, 6, 6, 0.000000
5, 3, 12, 5
13, 10, 13, 7
6, 3.49921, 8.50079, 7
8.49921, 9.00157, 12, 5
2, 11, 11, 4
18.5024, 14, 24, 12
5, 11, 13, 11
15, 26, 23.4992, 35.4992
42.4992, 53.4992, 70, 72
151.498, 121.501, 139.002, 157.499
239.998, 236.501, 282.994, 276.507
280.002, 298.496, 335.501, 322.504
286.997, 317.502, 330.998, 352.502
223.005, 218.501, 208.997, 181
185.499, 141.502, 145.498, 154.501
159, 142.499, 129.499, 167.504
185.997, 186, 206.502, 211.499
331.499, 317.501, 399.994, 375.005
519.504, 494.992, 489.502, 577.002
1032.51, 1158.49, 1361.99, 1642.5
6061.96, 8978.45, 13858.9, 22771.3
1911988.1, 2453727.3, 4014274.8, 5248877
168230, 90600.4, 55145.9, 34667.8
4839.03, 3578.52, 2886.51, 2150.01
945.997, 867.006, 682.005, 615.501
364.498, 342.002, 307.006, 269.997
211, 156, 161.502, 162.998
100.998, 101.002, 119, 103.002
70.0016, 79.9969, 92.0016, 81.5008
82, 68.0016, 69, 49
49, 34, 56.4992, 38.5008
26, 21, 21, 25.4992
27, 27, 13.9984, 36.5008
24.9984, 29.0016, 18, 21.4992
23.4992, 13.5008, 13, 12
11.9984, 7.00157, 6, 10
5.49921, 19.5008, 12, 4
17.4992, 8.50079, 19, 10
2, 13, 5, 11
2, 4, 2, 7
4, 4, 6, 2
5, 7, 5.49921, 9.50079
0.000000, 3, 0.000000, 14
0.000000, 4, 3, 0.000000
3, 3, 7, 0.000000
0.000000, 9, 6, 4
0.000000, 0.000000, 4, 9
5, 0.000000, 2, 4
3.50079, 3, 0.000000, 6
0.000000, 0.000000, 3, 2
6, 3, 0.000000, 0.000000
2, 0.000000, 3, 0.000000
1, 0.000000, 2, 4.99843
2, 8, 2, 2
3, 4, 2, 6
0.000000, 2, 5, 0.000000
0.000000, 1, 2, 0.000000
0.000000, 4, 1, 3
0.000000, 0.000000, 0.000000, 0.000000
0.000000, 4, 0.000000, 0.000000
0.000000, 1, 5, 2
0.000000, 0.000000, 5, 0.000000
2, 2, 0.000000, 0.000000
0.000000, 0.499214, 2.50079, 0.000000
0.000000, 3, 7, 1.49921
0.000000, 2, 2, 0.000000
0.000000, 0.000000, 2, 4
0.000000, 5.49921, 0.500786, 7
0.000000, 2, 6, 1
6, 0.000000, 0.000000, 5
2, 3, 4, 1
0.000000, 0.000000, 3, 1
3, 2, 0.000000, 0.000000
2, 2, 0.000000, 4
2, 2, 0.000000, 4
5, 2, 6, 2
2, 11, 0.000000, 3
0.500786, 3, 0.000000, 6.49921
0.000000, 0.000000, 2, 0.000000
0.000000, 3, 0.000000, 1
0.000000, 0.000000, 2, 0.000000
2, 2, 0.000000, 0.000000
6, 2, 2, 2
0.000000, 2, 0.000000, 2
0.000000, 3, 0.000000, 0.000000
2, 0.000000, 2, 0.000000
2.50079, 0.000000, 2.49921, 0.500786
0.000000, 0.000000, 0.000000, 2
1, 4, 5, 0.000000
0.000000, 1, 0.000000, 0.000000
0.000000, 0.000000, 2, 0.000000
0.000000, 0.000000, 2, 2
0.000000, 1, 0.000000, 0.000000
2, 4, 0.000000, 2
0.000000, 0.000000, 9, 3
2, 1.49921, 0.500786, 2
5, 0.000000, 2, 1
0.000000, 5, 0.000000, 2
0.000000, 0.000000, 4, 2
5, 3, 4, 0.000000
0.000000, 0.000000, 0.000000, 5
1, 6, 0.499214, 1.50079
0.000000, 0.000000, 0.000000, 0.000000
3, 0.000000, 3, 5
2, 2, 0.000000, 7
0.000000, 4, 0.000000, 0.000000
0.000000, 0.000000, 0.000000, 0.000000
0.000000, 0.000000, 0.000000, 5
0.000000, 2, 0.000000, 0.000000
0.000000, 2, 3, 2
0.000000, 3, 0.000000, 0.000000
0.000000, 0.000000, 0.000000, 2
0.000000, 0.000000, 4, 0.000000
0.000000, 2, 4, 0.000000
0.000000, 2, 0.000000, 2
0.000000, 2, 0.000000, 3
0.000000
*END

*EOF

File: 22102_S(CT)OL_XRD_notAnn_2-Theta_Omega.asc
*TYPE		=  Raw
*CLASS		=  ASCII CLASS
*SAMPLE		=
*COMMENT	=
*FNAME		=  22102_S(CT)OL_XRD_notAnn_2-Theta_Omega.asc
*DATE		=  25-Jun-22 07:27

*GROUP_COUNT	=  1
*GONIO		=  SmartLab(In-plane), 0.000000
*ATTACHMENT	=  Z-Phi Stage
*ASC		=  0, 0, 0.000000, 0.000000
*I_MONOCHRO	=  Ge(220)x2, 0.000000
*FILTER		=  None
*C_MONOCHRO	=  None, 0.000000
*SLIT_NAME	=  0, Incident slit
*SLIT_NAME	=  1, Receiving slit # 1
*SLIT_NAME	=  2, Receiving slit # 2
*COUNTER	=  D/teX Ultra 250, 0
*POS_FORMAT	=  0
*SCAN_AXIS	=  2Theta/Omega
*MEAS_MODE	=  Continuous Scanning
*TARGET		=  29
*XRAY_CHAR	=  K-ALPHA1
*WAVE_LENGTH1	=  1.54059
*WAVE_LENGTH2	=  1.54441
*THICKNESS	=  0, 0.000000
*MU		=  0, 0.000000
*SCAN_MODE	=  2Theta/Omega
*SPEED_DIM	=  sec./step
*XUNIT		=  deg.
*YUNIT		=  counts
*SCALE_MODE	=  1
*REP_COUNT	=  0
*SE_COUNT	=  0
*STD_MATERIAL	=  Unknown, Unknown, 0.000000, 0.000000, 0.000000, 0.000000, 0.000000, 0.000000
*LATT_CONS	=  0, Unknown, Unknown, 0.000000, 0.000000, 0.000000, 0.000000, 0.000000, 0.000000
*SEC_COUNT	=  1
*TSPEC_SIZE	=  0
*EXTRA_SIZE	=  0
*MEMO		=

*BEGIN
*GROUP		=  0
*START		=  42
*STOP		=  52
*STEP		=  0.01
*OFFSET		=  0.0115
*SPEED		=  59.958
*SLIT_SPEC	=  0, 0.500mm, 0.5, 0.000000
*SLIT_SPEC	=  1, 0.500mm, 0.5, 0.000000
*SLIT_SPEC	=  2, 0.500mm, 0.5, 0.000000
*KV		=  40
*MA		=  30
*LOW		=  0.000000
*HIGH		=  0.000000
*CTEMPER	=  0, 0.000000
*CTEMPER	=  1, 0.000000
*CTEMPER	=  2, 0.000000
*PAREX		=  0, 0.000000
*PAREX		=  1, 0.000000
*PAREX		=  2, 0.000000
*PAREX		=  3, 0.000000
*PAREX		=  4, 0.000000
*PAREX		=  5, 0.000000
*PAREX		=  6, 0.000000
*PAREX		=  7, 0.000000
*PAREX		=  8, 0.000000
*PAREX		=  9, 0.000000
*PAREX		=  10, 0.000000
*PAREX		=  11, 0.000000
*PAREX		=  12, 0.000000
*PAREX		=  13, 0.000000
*PAREX		=  14, 0.000000
*PAREX		=  15, 0.000000
*FULL_SCALE	=  89169.4
*INDEX		=  0, 0, 0
*COUNT		=  1001
27.4944, 30.5056, 20.4944, 21.5056
20, 23.4944, 31, 33.5056
12, 16.4944, 10.5056, 15.4944
16, 30, 20.5056, 35
29, 22, 14, 34
10, 12, 27, 16.4944
17, 20.5056, 14, 15
21, 27.9889, 14.0111, 29
26, 24, 38.4944, 26.5056
27.4944, 20.5056, 21.4944, 20.4944
11, 25.0111, 7.49445, 23
15, 27.5056, 14, 31
18, 13, 13, 21
34, 22.4944, 25.5056, 29.4944
41.4944, 20.0111, 17, 16
31, 30, 25, 12
16, 28, 13, 27.4944
13.5056, 34, 31.9889, 30.5056
25.5056, 22.4944, 21.5056, 31
22, 25.4944, 22, 33
26.5056, 31.4944, 10.5056, 69.4944
23.5056, 26.4944, 39, 27.5056
25, 38, 8, 21
14, 21, 15, 20.9889
25.5056, 16.5056, 27, 31
20, 27, 36, 35
24, 18, 29.9889, 24.5056
30, 25.5056, 28.4944, 33.4944
27.0111, 22.9889, 24.0111, 40.4944
25.5056, 18, 18, 25.4944
32.5056, 27, 31, 36.4944
21.5056, 21, 30, 18.9889
24.0111, 47, 26, 33
30, 44.9889, 41.0111, 42.4944
48, 41.5056, 31.4944, 39.5056
44.4944, 37.5056, 29.4944, 27.5056
40.4944, 49.5056, 27, 37.4944
47.5056, 50, 37.4944, 33
31, 34.9889, 49.0111, 56
60, 26, 32.5056, 41
54.9889, 61.0111, 53.4944, 56.9889
60.0111, 52.4944, 41.5056, 38
48.5056, 51.4944, 70.4944, 45.5056
59.5056, 59.9889, 51, 53.0111
58.4944, 51.5056, 67.4944, 48.5056
74.4944, 61.4944, 52.0111, 53.9889
46.5056, 43, 61.5056, 65.9889
68, 47.5056, 75, 63.9889
62, 77.4944, 58.5167, 70.4944
67.5056, 72.4944, 69.5056, 66
71.5056, 74.9889, 86.0111, 67.9778
62.5167, 70.4833, 79.0111, 97.4944
65.5056, 117.506, 86.9889, 64
91.0111, 98.5056, 95.9889, 84.0111
98.9889, 88.4833, 85, 91.5167
85.5056, 68.9889, 112.494, 109.022
126.483, 137.494, 136.517, 119.494
172, 113.483, 139.517, 140.483
154, 148.022, 154.989, 183.011
145.989, 202.494, 182.011, 161.989
195, 184.506, 222.989, 177.022
182.483, 235, 187.989, 236.517
200.506, 217.483, 231.506, 197.978
266.011, 221, 265.011, 235.472
222.55, 217.483, 262, 251.483
247, 244.989, 222.011, 237.494
215.506, 248.022, 262.989, 265.517
258.967, 289.022, 310.494, 299.967
256.033, 315.483, 336.989, 327
321, 320.022, 362, 336.506
300.978, 337.539, 366.967, 366.494
370.494, 380.022, 322.989, 385
380.022, 349.461, 323.528, 337.506
350.472, 333.033, 335.461, 334.022
326.022, 334.472, 322.011, 330.967
333.022, 323.989, 324.506, 300.506
287, 283.506, 282, 328.989
348.528, 308.506, 373.461, 358.989
365.539, 357.506, 426.967, 407.506
429.472, 454.55, 468.494, 500.461
498.461, 559.55, 598.494, 622.011
699.978, 618.517, 613.45, 741.033
758.517, 763.483, 751.989, 864.956
897.561, 906.978, 882.011, 904.922
999.539, 949.067, 895.956, 1013.52
1006, 1035.48, 1031.98, 991.528
969.033, 1064.45, 1055.99, 1040.03
1059.97, 1022.51, 1045.45, 1185.57
1054.47, 1068.49, 1056.01, 1084.52
1056.99, 1104.46, 1106.06, 1084.51
1121.51, 1106.99, 1090.43, 1217.54
1204.49, 1225.49, 1263.53, 1331.94
1302.56, 1431.97, 1540.47, 1550.49
1608.48, 1682, 1711.04, 1810.92
1954.98, 1970, 2081.08, 2242.45
2314.96, 2614.49, 2623.02, 2750.42
2934.47, 3121.45, 3143.49, 3410.98
3416.55, 3592.46, 3817.45, 4009.03
4188.47, 4252.52, 4299.99, 4507.51
4740.99, 4700.44, 4886.55, 4859.96
5173.45, 5291.02, 5258.49, 5399.91
5599.03, 5546.92, 5602.63, 5351.45
5516.53, 5612.01, 5503.49, 5363.41
5286.63, 5527.83, 5387.74, 5295.43
5238.98, 5192.96, 5190.48, 5004.47
4871.71, 4712.26, 4514.18, 4460.03
4329.04, 4172, 4007.51, 3814.55
3722.93, 3693.56, 3488.96, 3355.13
3227.92, 3143.44, 3062.12, 2821.97
2835.51, 2679.47, 2495.64, 2476.78
2423.62, 2268.57, 2155.54, 2148.02
2024, 2035, 1835.97, 1928.02
1671.57, 1718.47, 1666, 1634.45
1570.56, 1406.45, 1434.51, 1327.61
1281.42, 1233.49, 1197, 1084.57
1072.99, 1043, 984.989, 1039.53
894.528, 872.967, 831.506, 812.506
775.461, 688.572, 704.483, 650.506
598.483, 587.067, 562.989, 526.483
503.528, 482.483, 442.978, 456.494
402.539, 362, 376.956, 572.033
330.494, 368.989, 348.011, 331.033
335.461, 297.506, 286.033, 343.472
357.978, 314.539, 318.494, 310.494
279.989, 306.528, 322.944, 324.033
343.011, 366.978, 363, 378.011
406.967, 419.528, 428.011, 468.472
479.539, 586.461, 553.989, 589.506
600, 693.494, 633.978, 696.528
735.528, 803.45, 855.517, 822.011
860.944, 909.517, 857.494, 922.483
968.033, 956.483, 988.528, 1022.93
1046.07, 1196.46, 986.528, 976.45
1016.59, 971.933, 1027.99, 1030.52
982.483, 976.506, 941.506, 897.011
934.483, 931, 918.011, 882.033
857.978, 858.55, 849.944, 910.461
877.517, 865.506, 911.517, 891.539
937.461, 950.011, 1031.97, 1067.01
1016.98, 1022.47, 1070.54, 1226.51
1246.98, 1387.51, 1417.94, 1490.55
1666.93, 1761.98, 1872.54, 2121.94
2282.52, 2478.39, 2740.49, 3105.58
3444.32, 3984.56, 4602.37, 5277.35
6374.01, 7446.21, 8721.33, 10576.3
12785.1, 15927.2, 19453.1, 24170.6
30331.1, 37651.3, 46347.7, 56176.3
68326.2, 83333.2, 100864, 122029
156664, 204489, 246972, 281203
313333, 348966, 392140, 442962
504857, 609205, 968736, 2774365.8
3312740, 3748480.3, 3871958.5, 1976400.4
1145459.4, 611733, 319601, 186702
109430, 62103.9, 43332.2, 31991.8
24470.8, 18860.6, 14793.3, 11826.5
9535.65, 7647.12, 6267.59, 5460.08
4437.17, 3861.52, 3351.19, 2895.46
2617.43, 2329.11, 2036.47, 1869.08
1734.02, 1525.91, 1467.62, 1310.53
1205.99, 1149.52, 1103.48, 930.022
836.011, 856.539, 786.439, 729.022
683.528, 622.517, 578.483, 588.989
502.517, 491.978, 434.033, 390.967
415.539, 404.978, 406, 375.539
354.494, 316.989, 316.989, 347.528
370.967, 311.517, 297.011, 335.483
289, 301.989, 339.011, 273.022
259.978, 301.011, 215.978, 298.011
284.011, 248.011, 232.967, 276.011
278.011, 222, 183.483, 220.539
221.978, 177.528, 173.494, 165.483
189.011, 166.494, 167, 155.494
141.506, 136.483, 150.506, 129.528
159.978, 157.494, 113.528, 125.989
169, 139.978, 140.528, 154
136.494, 152.494, 120.989, 142.517
124.978, 154.022, 133.978, 128.517
139.506, 126, 132, 140.483
126.011, 126.011, 135.494, 102.506
118.978, 97.0111, 133.011, 123.483
122.022, 96.4944, 84.4944, 108.506
111.989, 102.506, 94.0111, 62.4833
77.5167, 99.4944, 60, 100.494
72, 60.4944, 58.5056, 87.5056
58.5056, 55.4944, 41, 86.4944
65.4944, 94.0111, 71.5056, 43.9889
55.0111, 55.4833, 67.5056, 67.5056
83.9889, 66.5167, 35.9889, 77.5056
49.4944, 64.5056, 56.5056, 40
60, 38.9889, 36.5056, 82.5056
47.4944, 53.5056, 47.9889, 42
35.5056, 51, 44.4944, 41.5056
42.9889, 25.5167, 84, 40
30, 48, 37, 47.4944
42, 27.4944, 44.0111, 36.4944
43.4944, 36.0111, 37, 24
35, 20, 47, 41.4833
26.0111, 40.4944, 28.0111, 38
32.4944, 44.9889, 42.5167, 35
34.9889, 45, 34.0111, 29.4833
36.5167, 28.4833, 38, 32.5167
25.9889, 27.5056, 38, 18.4944
36.0111, 27, 31.9889, 28.5056
26, 28.5056, 18, 31
35, 29, 23, 37
26, 29.9889, 28.5056, 39.5056
36, 30.4833, 41.5167, 28
29, 19, 28.4944, 37.5056
40, 20, 22.4944, 39.5056
15, 28.9889, 30.5056, 24.5056
40.4944, 29.5056, 28, 20
24.4944, 17.5056, 34.4944, 23.4944
24, 17.0111, 20, 42
21, 9, 30.4944, 20.5056
19, 27.4944, 35, 45.5056
22.9889, 35.0111, 17, 15
60, 15, 38, 29.4944
28.5056, 29, 18, 26.4944
25.5056, 18, 10.9889, 24.0111
19, 72, 23, 36
25, 22, 28, 22
19.9889, 4.01111, 38, 32.4944
31, 39.5056, 22, 30
11, 22, 24, 20
26, 31.4944, 25.5056, 20
22, 22.4944, 22.5056, 12
25, 20, 28, 31.4944
25, 27.5056, 34, 29
21.4944, 38.5056, 15.9889, 21.0111
24, 9, 61, 22
13.4944, 25, 20.4944, 18
30.5056, 18.5056, 72, 40.9778
26.0222, 17.4944, 24.4944, 25.0111
30, 14, 38.9889, 29.0111
20, 24.4944, 11.5056, 25
8, 21, 17, 28.4833
33.5167, 19, 29, 24
37, 26, 22, 19
17, 23, 22, 11
35, 23.4944, 15.5056, 16.4944
9.50555, 20.4944, 21.5056, 16.9889
26.0111, 16, 12.4944, 23
14.5056, 22.4944, 32.4944, 24.0111
46, 29, 18.9889, 26.0111
32.9889, 20.5056, 29.5056, 13
23.9889, 30.5056, 9.50555, 24
33, 20, 18.4944, 20
18.5056, 14, 20, 16
20, 27, 10, 27
11.4944, 21.5056, 16.4944, 23.5056
17
*END

*EOF