Folder: Analysis/XRD:XRR/SCO/22102_S(CT)OL (part 3)

File: 22102_S(CT)OL_XRR_notAnn_2-Theta_Omega.asc
*TYPE		=  Raw
*CLASS		=  ASCII CLASS
*SAMPLE		=
*COMMENT	=
*FNAME		=  22102_S(CT)OL_XRR_notAnn_2-Theta_Omega.asc
*DATE		=  27-Jun-22 12:08

*GROUP_COUNT	=  1
*GONIO		=  SmartLab(In-plane), 0.000000
*ATTACHMENT	=  Z-Phi Stage
*ASC		=  0, 0, 0.000000, 0.000000
*I_MONOCHRO	=  Ge(220)x2, 0.000000
*FILTER		=  None
*C_MONOCHRO	=  None, 0.000000
*SLIT_NAME	=  0, Incident slit
*SLIT_NAME	=  1, Receiving slit # 1
*SLIT_NAME	=  2, Receiving slit # 2
*COUNTER	=  D/teX Ultra 250, 0
*POS_FORMAT	=  0
*SCAN_AXIS	=  2Theta/Omega
*MEAS_MODE	=  Continuous Scanning
*TARGET		=  29
*XRAY_CHAR	=  K-ALPHA1
*WAVE_LENGTH1	=  1.54059
*WAVE_LENGTH2	=  1.54441
*THICKNESS	=  0, 0.000000
*MU		=  0, 0.000000
*SCAN_MODE	=  2Theta/Omega
*SPEED_DIM	=  sec./step
*XUNIT		=  deg.
*YUNIT		=  counts
*SCALE_MODE	=  1
*REP_COUNT	=  0
*SE_COUNT	=  0
*STD_MATERIAL	=  Unknown, Unknown, 0.000000, 0.000000, 0.000000, 0.000000, 0.000000, 0.000000
*LATT_CONS	=  0, Unknown, Unknown, 0.000000, 0.000000, 0.000000, 0.000000, 0.000000, 0.000000
*SEC_COUNT	=  1
*TSPEC_SIZE	=  0
*EXTRA_SIZE	=  0
*MEMO		=

*BEGIN
*GROUP		=  0
*START		=  0.4
*STOP		=  4.5
*STEP		=  0.01
*OFFSET		=  0.0114
*SPEED		=  23.9588
*SLIT_SPEC	=  0, 1.000mm, 1, 0.000000
*SLIT_SPEC	=  1, 1.000mm, 1, 0.000000
*SLIT_SPEC	=  2, 1.000mm, 1, 0.000000
*KV		=  40
*MA		=  30
*LOW		=  0.000000
*HIGH		=  0.000000
*CTEMPER	=  0, 0.000000
*CTEMPER	=  1, 0.000000
*CTEMPER	=  2, 0.000000
*PAREX		=  0, 0.000000
*PAREX		=  1, 0.000000
*PAREX		=  2, 0.000000
*PAREX		=  3, 0.000000
*PAREX		=  4, 0.000000
*PAREX		=  5, 0.000000
*PAREX		=  6, 0.000000
*PAREX		=  7, 0.000000
*PAREX		=  8, 0.000000
*PAREX		=  9, 0.000000
*PAREX		=  10, 0.000000
*PAREX		=  11, 0.000000
*PAREX		=  12, 0.000000
*PAREX		=  13, 0.000000
*PAREX		=  14, 0.000000
*PAREX		=  15, 0.000000
*FULL_SCALE	=  68552.7
*INDEX		=  0, 0, 0
*COUNT		=  411
1028236.9, 1057642.5, 1087647, 1115396
1143526, 1168943, 1189659, 1213620
1235773, 1251082, 1273584, 1288207
1302048.5, 1315459.5, 1327930.5, 1337515
1343413, 1348793.5, 1351669.5, 1346932
1337570.5, 1323921.5, 1303129.5, 1276888
1244398.5, 1206482.5, 1153805.5, 1090669.1
1013755.1, 918583, 808050, 692697
573299, 463927, 366039, 290916
246172, 230352, 230356, 226918
212492, 186110, 155687, 124300
98107, 74253, 55903, 42494
34294.5, 29355, 27623.5, 27726
29550, 31275, 33622.5, 34903
35892.5, 36028, 35381, 33293
31137, 28324.5, 25599.5, 22287.5
19009, 15868, 12857, 10589.5
8406, 6855, 5848, 5251.5
4887.5, 5094.5, 5521.5, 6129
6846.5, 7756.5, 8538.5, 9346.5
9875.5, 10395.5, 10555, 11138
11104.5, 10761, 10434.5, 10066
9188.5, 8662.5, 7660, 6785.5
5903.5, 5048, 4389, 3416
2874.5, 2293.5, 1818.5, 1460.5
1165, 986, 881.5, 773.5
898, 955, 1197.5, 1273
1523.5, 1747.5, 1930, 2067
2265.5, 2368, 2458, 2566
2582, 2568, 2569.5, 2406
2236, 2287, 2111.5, 1867.5
1809.5, 1616, 1373, 1258
1124.5, 887, 860, 707
590, 580.5, 489, 476.5
528, 492, 544.5, 594.5
718, 746, 809, 940
964.5, 1032, 1059, 1160.5
1230, 1187, 1249, 1320.5
1256, 1262, 1195.5, 1158.5
1166, 1106, 1024.5, 915
857.5, 807.501, 687.5, 588
597.5, 517, 475, 452
420.5, 387.5, 404, 405.5
385, 399, 415.5, 428
483, 518.5, 566.501, 579.5
593.5, 639.5, 667.5, 651
728, 697.5, 619, 639
652, 625.5, 537.5, 597.5
568.5, 529.5, 507, 424.5
411, 409, 365, 334
343.5, 293, 340.5, 292
303, 326, 365, 339.5
356.5, 408.5, 394, 408.5
447, 481, 489.999, 483.501
530.5, 522.5, 479, 482.5
516, 470, 517.5, 454
434, 393.5, 396.5, 313.5
334, 274, 297, 291
290, 266.5, 275, 260.5
288, 278.5, 261, 278
289.5, 258.5, 297.5, 333
358, 358.5, 331, 369.5
393.5, 364, 330, 383
384, 366.5, 334, 348.5
329.5, 255, 296.5, 302
283, 275, 227.5, 274.5
254.5, 282, 234.5, 223.5
223.5, 283, 246, 264
247.5, 283.5, 280, 301
306.5, 335.5, 334, 305.5
324, 308.5, 333.5, 282
316.5, 321.5, 328.5, 303.5
329, 248.5, 260, 257.5
215, 257.5, 231.5, 228.5
217.5, 225.5, 217, 212
201.5, 218.5, 217.5, 205.5
237.5, 202.5, 200, 213.5
226.5, 226, 213.5, 232
237.5, 245, 251, 235
244.5, 229.5, 244.5, 278
207, 243, 259, 250.5
194, 220, 226, 222.5
221, 187.5, 197, 227.5
179, 185, 181.5, 199
205, 211, 203, 189.5
212, 164.5, 160, 209
232, 198, 177, 226
198.5, 230.5, 198.5, 235.5
193, 209.5, 178, 211.5
192.5, 197.5, 215.5, 181.5
206.5, 188.5, 195.5, 217
190, 184.5, 193, 196
169.5, 166, 180.5, 147.5
169, 165, 153.5, 163
166, 172, 162.5, 181
187.5, 175.5, 145.5, 135.5
176.5, 151.5, 196, 182
188.5, 182.5, 161.5, 202
168, 165, 161.5, 171.5
194.5, 158, 164, 194.5
145.5, 149.5, 175.5, 166
178.5, 161, 155.5, 133.5
162.5, 160.5, 137
*END

*EOF