Folder: Analysis/XRD:XRR/SCO/22103_S(CT)L (part 2)

File: 22103_not_annealed_002_XRD_2-Theta_Omega.asc
*TYPE		=  Raw
*CLASS		=  ASCII CLASS
*SAMPLE		=
*COMMENT	=
*FNAME		=  22103_not_annealed_002_XRD_2-Theta_Omega.asc
*DATE		=  30-Jun-22 17:13

*GROUP_COUNT	=  1
*GONIO		=  SmartLab(In-plane), 0.000000
*ATTACHMENT	=  Z-Phi Stage
*ASC		=  0, 0, 0.000000, 0.000000
*I_MONOCHRO	=  Ge(220)x2, 0.000000
*FILTER		=  None
*C_MONOCHRO	=  None, 0.000000
*SLIT_NAME	=  0, Incident slit
*SLIT_NAME	=  1, Receiving slit # 1
*SLIT_NAME	=  2, Receiving slit # 2
*COUNTER	=  D/teX Ultra 250, 0
*POS_FORMAT	=  0
*SCAN_AXIS	=  2Theta/Omega
*MEAS_MODE	=  Continuous Scanning
*TARGET		=  29
*XRAY_CHAR	=  K-ALPHA1
*WAVE_LENGTH1	=  1.54059
*WAVE_LENGTH2	=  1.54441
*THICKNESS	=  0, 0.000000
*MU		=  0, 0.000000
*SCAN_MODE	=  2Theta/Omega
*SPEED_DIM	=  sec./step
*XUNIT		=  deg.
*YUNIT		=  counts
*SCALE_MODE	=  1
*REP_COUNT	=  0
*SE_COUNT	=  0
*STD_MATERIAL	=  Unknown, Unknown, 0.000000, 0.000000, 0.000000, 0.000000, 0.000000, 0.000000
*LATT_CONS	=  0, Unknown, Unknown, 0.000000, 0.000000, 0.000000, 0.000000, 0.000000, 0.000000
*SEC_COUNT	=  1
*TSPEC_SIZE	=  0
*EXTRA_SIZE	=  0
*MEMO		=

*BEGIN
*GROUP		=  0
*START		=  42
*STOP		=  52
*STEP		=  0.01
*OFFSET		=  -0.032300
*SPEED		=  21.3873
*SLIT_SPEC	=  0, 0.400mm, 0.4, 0.000000
*SLIT_SPEC	=  1, 0.400mm, 0.4, 0.000000
*SLIT_SPEC	=  2, 0.400mm, 0.4, 0.000000
*KV		=  40
*MA		=  30
*LOW		=  0.000000
*HIGH		=  0.000000
*CTEMPER	=  0, 0.000000
*CTEMPER	=  1, 0.000000
*CTEMPER	=  2, 0.000000
*PAREX		=  0, 0.000000
*PAREX		=  1, 0.000000
*PAREX		=  2, 0.000000
*PAREX		=  3, 0.000000
*PAREX		=  4, 0.000000
*PAREX		=  5, 0.000000
*PAREX		=  6, 0.000000
*PAREX		=  7, 0.000000
*PAREX		=  8, 0.000000
*PAREX		=  9, 0.000000
*PAREX		=  10, 0.000000
*PAREX		=  11, 0.000000
*PAREX		=  12, 0.000000
*PAREX		=  13, 0.000000
*PAREX		=  14, 0.000000
*PAREX		=  15, 0.000000
*FULL_SCALE	=  1095113.1
*INDEX		=  0, 0, 0
*COUNT		=  1001
1, 2, 0.000000, 6
4, 5.49445, 3.50555, 6
5, 5, 0.000000, 6
4, 3, 2, 0.000000
0.000000, 0.000000, 3, 0.000000
2, 2, 2, 0.000000
0.000000, 0.000000, 0.000000, 0.000000
3, 4, 2, 5
4, 2, 3, 12
0.000000, 2, 0.000000, 2
3, 0.000000, 3, 0.000000
4, 7, 4, 5
4, 5, 0.000000, 0.000000
6, 2, 0.000000, 7
2, 3, 4, 3
0.000000, 2, 2, 4
0.000000, 7, 0.000000, 4
0.000000, 2, 2, 0.000000
0.000000, 4, 2, 6
10, 5, 0.000000, 5
8, 0.000000, 10, 3.49445
2.50555, 4, 0.000000, 5
2, 4, 0.000000, 6
8.49445, 4.50555, 2, 0.000000
5, 3, 2, 5
7, 2, 6, 5
0.000000, 5, 6, 7
5, 0.000000, 5, 0.000000
10.9889, 6.01111, 7.49445, 5.50555
9, 12, 8, 3
0.000000, 13, 4, 5
5, 13, 5, 19
8, 9, 18, 9
12, 2, 15, 11.4944
7.50555, 6, 6, 8
19.4944, 4.50555, 13, 10
23, 8, 13, 12
17, 16, 12.9889, 21.0111
21, 20, 28, 11
17, 17, 24, 20
20.4944, 11.5056, 26.4944, 18
30, 30.4944, 41.5056, 16
33.5056, 23, 10.9889, 16.0111
32.4944, 34, 19.5056, 28
10, 10, 10, 26.4944
22.5056, 37.9889, 28.0111, 28
28, 19, 18.9889, 16.0111
24, 15, 37.4944, 24.5056
4, 18, 27, 14
26, 15, 6, 27
34, 21.9889, 28.0111, 22
16.9889, 20.5056, 18, 8
17.5056, 14, 10, 22.4944
8.50555, 10, 16, 14
6, 11, 12, 8
20, 10, 11, 10.4944
17.5056, 4, 14, 8.49445
11.5056, 14, 17.4944, 11.5056
12, 26, 24.4944, 19.5056
19, 25, 10, 16
28.4833, 19.5167, 16, 26
30.4944, 26.5056, 29.4944, 29
24.5056, 18, 23, 35
22, 25, 25, 28
38, 25.4833, 30.5167, 41
27, 41, 46.9889, 41
41.0111, 52, 58.9889, 35.5056
56, 47.5056, 53, 37
38, 36.4944, 54.5056, 49
44, 70, 66, 54.9889
68.9889, 65.0222, 74, 64
67.9889, 71.0111, 77.9889, 91
96.0111, 99.9889, 122.494, 118.011
107.506, 129.472, 146.517, 159.506
154.967, 170.539, 175.978, 187.506
189.494, 194.472, 203.528, 220.989
236.022, 270.483, 239, 267.989
311.011, 277.967, 323.539, 313.483
323.506, 393.989, 373.517, 433.978
400.494, 423, 507.528, 444
491.967, 587.011, 573.011, 614.978
689.989, 660, 749.517, 799.506
870.878, 913.044, 887.033, 995
1088.99, 1100, 1220.53, 1246.93
1346.47, 1306.98, 1434.57, 1568.45
1564.49, 1704.01, 1782.45, 1765.08
1779, 1955.36, 1839.62, 1943.42
1986.56, 2032.42, 2143, 2167.07
2107.94, 2133.52, 2173.51, 2166.45
2277.08, 2160.92, 2209.09, 2120.45
2132.06, 2066.42, 2200.54, 2033.98
2017.55, 2054.44, 1986.53, 1999.55
1985.96, 1937.02, 1871.03, 1880.47
1846.03, 1882.43, 1939.52, 1817.52
1865.97, 1886.54, 1790.07, 1837.45
1904.52, 1806.46, 1913.99, 1887.48
1911.57, 2024.47, 1919.43, 1975.12
1981.46, 1998.96, 2089.48, 2082.92
2169.13, 2066.98, 2186.98, 2120.47
2114.53, 2168.52, 2140.97, 2087.06
2014.46, 2018.07, 1963.92, 1904.59
1914.44, 1838.03, 1802.93, 1706.01
1657.08, 1613.01, 1523.47, 1488.58
1326.98, 1281.97, 1205.03, 1179.48
1044.06, 988.956, 878.989, 814.067
761.494, 664.461, 619.067, 552.956
498.494, 458.033, 407.011, 412.528
338.978, 309.022, 336.494, 294.989
244, 247, 241.517, 258
257.483, 228.506, 221.011, 196.506
211.506, 217.483, 258, 219.022
221.978, 238.494, 220.011, 180.978
222.517, 235.494, 165.506, 204
182.011, 229.989, 202, 174.506
154.494, 148.022, 163.483, 112.506
143.011, 130.978, 131.011, 109.506
68, 112, 87, 88.5056
94.9778, 88.0111, 77.4944, 83
100.011, 97.4944, 128, 116.011
101.989, 96.9778, 121.022, 109
116.506, 132.978, 155.517, 166.483
148.022, 134.978, 135.011, 180.506
135.506, 131, 136, 144.978
135.011, 138, 115.506, 125.011
112.978, 133.022, 112.472, 100.011
118.989, 92.5167, 109, 97.0111
86.4833, 115.506, 103.011, 97.4944
112.989, 79.0111, 113, 94
99, 115.483, 128.011, 118.989
119.517, 126.978, 121.517, 154.978
139.528, 150.506, 138.967, 158.022
170, 175.494, 163.517, 148.483
198.989, 174.506, 201, 175.506
201.494, 193.989, 217.989, 210.022
224.989, 247.011, 243.506, 246.967
310.528, 298.989, 314, 364.483
368.011, 364.989, 390.506, 435
450.978, 456.517, 474.022, 491.472
556.494, 524.022, 564.483, 605.967
634.056, 670.978, 709.494, 786.472
790.494, 869.033, 875.967, 902.967
963.011, 1024.99, 1088.49, 1267.94
1290.54, 1454.98, 1523.97, 1670.01
1892.94, 2177.53, 2494.97, 2715.36
3327.01, 3804.89, 4623.42, 5499.93
6919.77, 8856.77, 11396.6, 15067.8
20451.3, 27986.7, 38664.7, 52352.2
71084.6, 95920.1, 126753, 167922
221717, 292743, 392070, 535680
767136, 1202924.5, 2823766.3, 9439784
17946086, 12753661, 7275182.5, 2452987.8
821690, 359634, 205718, 128330
83763.8, 57248.1, 40853.2, 29824.5
22366.1, 16872.1, 12567.3, 9842.77
7707.79, 5902.65, 4882.14, 3780.98
3085.1, 2558.09, 2105.06, 1841
1503.53, 1389.08, 1230.49, 992.494
926.494, 811.506, 743.506, 628.022
570.528, 523.967, 516.033, 440
459.989, 399.022, 306, 345.494
352, 322.989, 301.044, 255.978
250.022, 258.494, 261.978, 209.506
212, 181.517, 191.506, 194.483
199.472, 165.033, 142, 121
129, 145.978, 99.0333, 105.483
95.0111, 102, 94, 93.4944
117, 75.5056, 70.9889, 85.5167
54.5056, 68, 48, 64
65.4944, 41.5056, 56.4833, 68.0111
64.5056, 52, 61.9889, 51.0111
72, 45.9889, 50.0111, 54
52.4944, 41.5056, 56, 37
49.4944, 49.5056, 33, 44.4944
43.9889, 41.0111, 42.5056, 33
30, 44, 27.4944, 27.5056
20.4944, 39, 19.4944, 24.0111
21, 19, 14, 30
17, 11, 13, 20
18, 10.4944, 17.5056, 20
13.4944, 4.50555, 5, 10
9, 13, 17, 11
15.4944, 10.5056, 5, 2
17, 17, 18.4944, 4.50555
10, 8, 13.4944, 23.5056
21, 6, 18, 11
7, 13, 7, 17.4944
9.50555, 13, 7, 19.4944
20.5056, 8.49445, 9.50555, 5
8, 2, 14, 13
9, 4, 12, 9
11, 4, 2, 5
13, 8, 10, 6
2.49445, 9.50555, 4, 11
9.49445, 8.50555, 7, 11
2, 7, 5, 3
4, 4, 2, 2
3, 46, 12, 3.49445
8.50555, 2, 0.000000, 2
7.49445, 5.50555, 2, 0.000000
3, 3, 2, 5
3, 10, 5, 0.000000
7, 3, 3, 3.98889
7.01111, 6, 4, 2
6, 0.000000, 6, 2
7, 1.49445, 11.5056, 4
6, 8, 5, 0.000000
1, 4, 2, 5
5, 9, 0.000000, 2.49445
2.50555, 5, 10, 0.000000
6, 2, 10, 0.000000
0.000000, 11, 0.000000, 7
2.49445, 4.50555, 7.49445, 5.50555
3, 6, 6, 6
4, 7, 0.000000, 3.49445
0.505554, 4, 2, 2
3, 9, 8, 6
8, 2, 5, 6
10, 4, 0.000000, 3
14, 7, 3, 4
8, 10.4944, 3.50555, 2
3, 2, 2, 4
2, 4, 3, 5.49445
1.50555, 0.000000, 0.000000, 6
3, 0.000000, 2, 0.000000
2, 2, 0.000000, 0.000000
2, 4, 2, 0.000000
0.000000, 0.000000, 2, 7
0.000000, 0.000000, 0.000000, 0.000000
2, 0.000000, 3, 2
0.000000, 2.49445, 2.50555, 2
2, 4, 0.000000, 2
0.000000, 0.494446, 8.50555, 0.000000
4, 0.000000, 1.49445, 5.50555
4, 4, 0.000000, 53
2, 0.000000, 2, 0.000000
1, 2, 5, 0.000000
8, 7, 0.000000, 4
4, 2, 2, 7
4, 2, 1, 6
0.000000, 0.000000, 0.000000, 1
3, 9, 9, 4
0.000000, 7.49445, 0.505554, 2
0.000000, 4, 4, 0.000000
0.000000, 2, 2, 2
0.000000, 1, 2, 0.000000
4, 2, 0.000000, 7
3, 0.000000, 5, 0.000000
2, 0.000000, 3, 2
6, 2, 0.000000, 2
2, 2, 0.000000, 0.000000
2
*END

*EOF

File: 22103_not_annealed_XRR_2-Theta_Omega.asc
*TYPE		=  Raw
*CLASS		=  ASCII CLASS
*SAMPLE		=
*COMMENT	=
*FNAME		=  22103_not_annealed_XRR_2-Theta_Omega.asc
*DATE		=  01-Jul-22 11:21

*GROUP_COUNT	=  1
*GONIO		=  SmartLab(In-plane), 0.000000
*ATTACHMENT	=  Z-Phi Stage
*ASC		=  0, 0, 0.000000, 0.000000
*I_MONOCHRO	=  Ge(220)x2, 0.000000
*FILTER		=  None
*C_MONOCHRO	=  None, 0.000000
*SLIT_NAME	=  0, Incident slit
*SLIT_NAME	=  1, Receiving slit # 1
*SLIT_NAME	=  2, Receiving slit # 2
*COUNTER	=  D/teX Ultra 250, 0
*POS_FORMAT	=  0
*SCAN_AXIS	=  2Theta/Omega
*MEAS_MODE	=  Continuous Scanning
*TARGET		=  29
*XRAY_CHAR	=  K-ALPHA1
*WAVE_LENGTH1	=  1.54059
*WAVE_LENGTH2	=  1.54441
*THICKNESS	=  0, 0.000000
*MU		=  0, 0.000000
*SCAN_MODE	=  2Theta/Omega
*SPEED_DIM	=  sec./step
*XUNIT		=  deg.
*YUNIT		=  counts
*SCALE_MODE	=  1
*REP_COUNT	=  0
*SE_COUNT	=  0
*STD_MATERIAL	=  Unknown, Unknown, 0.000000, 0.000000, 0.000000, 0.000000, 0.000000, 0.000000
*LATT_CONS	=  0, Unknown, Unknown, 0.000000, 0.000000, 0.000000, 0.000000, 0.000000, 0.000000
*SEC_COUNT	=  1
*TSPEC_SIZE	=  0
*EXTRA_SIZE	=  0
*MEMO		=

*BEGIN
*GROUP		=  0
*START		=  0.4
*STOP		=  4.5
*STEP		=  0.01
*OFFSET		=  -0.013800
*SPEED		=  16.6251
*SLIT_SPEC	=  0, 1.000mm, 1, 0.000000
*SLIT_SPEC	=  1, 1.000mm, 1, 0.000000
*SLIT_SPEC	=  2, 1.000mm, 1, 0.000000
*KV		=  40
*MA		=  30
*LOW		=  0.000000
*HIGH		=  0.000000
*CTEMPER	=  0, 0.000000
*CTEMPER	=  1, 0.000000
*CTEMPER	=  2, 0.000000
*PAREX		=  0, 0.000000
*PAREX		=  1, 0.000000
*PAREX		=  2, 0.000000
*PAREX		=  3, 0.000000
*PAREX		=  4, 0.000000
*PAREX		=  5, 0.000000
*PAREX		=  6, 0.000000
*PAREX		=  7, 0.000000
*PAREX		=  8, 0.000000
*PAREX		=  9, 0.000000
*PAREX		=  10, 0.000000
*PAREX		=  11, 0.000000
*PAREX		=  12, 0.000000
*PAREX		=  13, 0.000000
*PAREX		=  14, 0.000000
*PAREX		=  15, 0.000000
*FULL_SCALE	=  156522
*INDEX		=  0, 0, 0
*COUNT		=  411
1639566, 1681499, 1717842, 1759401.5
1796806.5, 1836300, 1871194.5, 1909461.5
1943359.5, 1973302.5, 2006214, 2036401.5
2062405.5, 2087192.9, 2108280, 2123288
2134497.5, 2139788.5, 2132272.5, 2120530.5
2096963, 2059575, 2008633.5, 1939225.6
1847763.6, 1734667.1, 1595480.6, 1433067.1
1251500.3, 1052146.3, 857084, 689600
569448, 500254, 465432, 448563
433075, 409938, 372396, 322854
270276, 220181, 176198, 141500
115611, 98259, 89089.5, 84486.5
84889.5, 87205.5, 90068, 92964.5
95929, 95355, 94817, 92002.5
87784, 81843, 75280, 68899
60422, 53476, 46072, 39828
34051, 29635, 25427, 22654.5
21017, 19474.5, 18847.5, 19307
19428, 20336, 21267, 22068.5
22918.5, 23682, 23851.5, 23875.5
23855, 23393, 22180.5, 21307.5
19839, 18252, 16907.5, 15347
13726.5, 12174, 10722.5, 9534.5
8252, 7393.5, 6894, 6486
6081, 6131, 6403, 6380
6733.5, 7155, 7623.5, 8206.5
8651.5, 8894.5, 9571.5, 9662
9803, 9659.5, 9878.5, 9439
9358.5, 8822, 8525, 8063.5
7348.5, 6795, 6148, 5554
4828, 4351, 3950, 3436
3210.5, 3019.5, 2749.5, 2634
2633, 2676, 2728.5, 2967
2939, 3272.5, 3511, 3681.5
3927, 4126, 4276, 4414
4482, 4399, 4439, 4425.5
4394, 4102.5, 4049, 3859
3599, 3342.5, 3137, 2810
2515, 2317, 2220.5, 1958
1765.5, 1708.5, 1429.5, 1487
1472.5, 1465.5, 1516, 1535.5
1540.5, 1681, 1835, 1832.5
1946, 2037, 2105, 2266.5
2306.5, 2260, 2285, 2315.5
2374.5, 2218, 2074, 1943
1895.5, 1885.5, 1674, 1558.5
1496.5, 1405.5, 1346.5, 1166
1073.5, 1023, 945.5, 889.5
924.501, 856.499, 945, 911.5
950.5, 1029.5, 1056.5, 1081
1124, 1260, 1304, 1317
1392, 1392, 1332.5, 1470
1400, 1407, 1407.5, 1268.5
1284, 1190.5, 1178, 1129.5
1022.5, 1025.5, 866, 892.5
832, 831.5, 833.5, 755
729, 671, 693.5, 709
742.5, 817.5, 809, 789
872, 848, 879, 913.999
952.001, 896.5, 978, 910.5
906, 915.501, 919.5, 808.5
864.5, 830, 751, 701
654, 607.5, 593.001, 561.5
470, 481.5, 472.5, 440
442.5, 413, 427, 428
447.5, 436.5, 438.5, 466
434, 458, 456, 515
508, 457.5, 514.5, 539
539.5, 514, 509, 543
508, 459, 407, 458
474, 359.5, 382, 369.5
371, 357.5, 306, 334
311.5, 328, 274.5, 306
292.5, 317, 320, 316.5
342, 371, 388.5, 332
360.5, 364.5, 372.5, 394
374, 390, 381, 368.5
349.5, 358, 379, 397.5
368, 339, 307.5, 326.5
340, 285, 304.5, 346
312.5, 294.5, 323, 302.5
275.5, 311.5, 308, 307
340.5, 272, 318.5, 340
347.5, 356.5, 355.5, 354.5
315.5, 336.5, 307.5, 342
326, 328.5, 330, 322
294, 291.5, 282, 264.5
233, 264.5, 221.5, 233
230, 242, 234, 230
221.5, 221, 213.5, 245
209.5, 204, 238, 208.5
217.5, 245, 246.5, 245.5
199, 225.5, 228, 242
244.5, 234, 238, 252
244, 254.5, 187, 210
238, 255.5, 196.5, 243
196.5, 228, 229.5, 215
207, 214, 232.5, 216
203.5, 218, 214.5, 198.5
242.5, 198.5, 202, 226.5
216.5, 234.5, 205, 220
254, 240.5, 232.5, 216
240.5, 208, 230
*END

*EOF