Folder: Analysis/XRD:XRR/SCO/22103_S(CT)L

File: 22103_not_annealed_001_XRD.csv
#twotheta, yobs, ycal, bkg, diff
16.0,3.0,1.0,1.0,1.0
16.05,13.0,1.0,1.0,1.0
16.1,2.0,1.0,1.0,1.0
16.15,3.0,1.0,1.0,1.0
16.2,6.5008,1.0,1.0,1.0
16.25,0.0,1.0,1.0,1.0
16.3,4.0,1.0,1.0,1.0
16.35,10.0,1.0,1.0,1.0
16.4,0.0,1.0,1.0,1.0
16.45,0.0,1.0,1.0,1.0
16.5,2.0,1.0,1.0,1.0
16.55,3.0,1.0,1.0,1.0
16.6,0.0,1.0,1.0,1.0
16.65,7.0,1.0,1.0,1.0
16.7,0.0,1.0,1.0,1.0
16.75,0.0,1.0,1.0,1.0
16.8,0.0,1.0,1.0,1.0
16.85,4.0,1.0,1.0,1.0
16.9,0.0,1.0,1.0,1.0
16.95,2.0,1.0,1.0,1.0
17.0,1.0,1.0,1.0,1.0
17.05,2.0,1.0,1.0,1.0
17.1,3.0,1.0,1.0,1.0
17.15,0.0,1.0,1.0,1.0
17.2,4.0,1.0,1.0,1.0
17.25,9.0,1.0,1.0,1.0
17.3,6.0,1.0,1.0,1.0
17.35,8.0,1.0,1.0,1.0
17.4,6.0,1.0,1.0,1.0
17.45,0.0,1.0,1.0,1.0
17.5,5.0,1.0,1.0,1.0
17.55,3.0,1.0,1.0,1.0
17.6,0.0,1.0,1.0,1.0
17.65,0.0,1.0,1.0,1.0
17.7,0.0,1.0,1.0,1.0
17.75,4.0,1.0,1.0,1.0
17.8,6.0,1.0,1.0,1.0
17.85,6.0,1.0,1.0,1.0
17.9,15.9969,1.0,1.0,1.0
17.95,0.0,1.0,1.0,1.0
18.0,14.4992,1.0,1.0,1.0
18.05,3.0,1.0,1.0,1.0
18.1,2.4992,1.0,1.0,1.0
18.15,28.0,1.0,1.0,1.0
18.2,2.0,1.0,1.0,1.0
18.25,4.0,1.0,1.0,1.0
18.3,5.0,1.0,1.0,1.0
18.35,10.0,1.0,1.0,1.0
18.4,2.0,1.0,1.0,1.0
18.45,8.9984,1.0,1.0,1.0
18.5,5.0,1.0,1.0,1.0
18.55,0.0,1.0,1.0,1.0
18.6,4.0,1.0,1.0,1.0
18.65,2.0,1.0,1.0,1.0
18.7,7.0,1.0,1.0,1.0
18.75,2.0,1.0,1.0,1.0
18.8,2.0,1.0,1.0,1.0
18.85,6.0,1.0,1.0,1.0
18.9,6.0,1.0,1.0,1.0
18.95,8.0016,1.0,1.0,1.0
19.0,5.9984,1.0,1.0,1.0
19.05,0.4992,1.0,1.0,1.0
19.1,5.0,1.0,1.0,1.0
19.15,4.0,1.0,1.0,1.0
19.2,2.0,1.0,1.0,1.0
19.25,4.0,1.0,1.0,1.0
19.3,0.0,1.0,1.0,1.0
19.35,7.0,1.0,1.0,1.0
19.4,3.9984,1.0,1.0,1.0
19.45,3.4992,1.0,1.0,1.0
19.5,2.0,1.0,1.0,1.0
19.55,5.0,1.0,1.0,1.0
19.6,7.0,1.0,1.0,1.0
19.65,4.0,1.0,1.0,1.0
19.7,2.0,1.0,1.0,1.0
19.75,4.0,1.0,1.0,1.0
19.8,3.0,1.0,1.0,1.0
19.85,1.0,1.0,1.0,1.0
19.9,3.0,1.0,1.0,1.0
19.95,0.0,1.0,1.0,1.0
20.0,2.0,1.0,1.0,1.0
20.05,9.5008,1.0,1.0,1.0
20.1,9.5008,1.0,1.0,1.0
20.15,5.0,1.0,1.0,1.0
20.2,3.0,1.0,1.0,1.0
20.25,4.0,1.0,1.0,1.0
20.3,2.0,1.0,1.0,1.0
20.35,2.0,1.0,1.0,1.0
20.4,4.0,1.0,1.0,1.0
20.45,2.0,1.0,1.0,1.0
20.5,5.0,1.0,1.0,1.0
20.55,3.0,1.0,1.0,1.0
20.6,5.0,1.0,1.0,1.0
20.65,2.0,1.0,1.0,1.0
20.7,5.4992,1.0,1.0,1.0
20.75,6.0,1.0,1.0,1.0
20.8,4.0,1.0,1.0,1.0
20.85,5.0,1.0,1.0,1.0
20.9,19.0,1.0,1.0,1.0
20.95,12.0,1.0,1.0,1.0
21.0,5.0,1.0,1.0,1.0
21.05,5.0,1.0,1.0,1.0
21.1,7.5008,1.0,1.0,1.0
21.15,7.0,1.0,1.0,1.0
21.2,4.4992,1.0,1.0,1.0
21.25,2.0,1.0,1.0,1.0
21.3,5.0,1.0,1.0,1.0
21.35,4.0,1.0,1.0,1.0
21.4,2.0,1.0,1.0,1.0
21.45,12.0,1.0,1.0,1.0
21.5,8.0,1.0,1.0,1.0
21.55,12.0,1.0,1.0,1.0
21.6,4.5008,1.0,1.0,1.0
21.65,17.0,1.0,1.0,1.0
21.7,6.0,1.0,1.0,1.0
21.75,15.0,1.0,1.0,1.0
21.8,10.0,1.0,1.0,1.0
21.85,13.0,1.0,1.0,1.0
21.9,11.0,1.0,1.0,1.0
21.95,14.5008,1.0,1.0,1.0
22.0,10.0,1.0,1.0,1.0
22.05,21.5008,1.0,1.0,1.0
22.1,92.0,1.0,1.0,1.0
22.15,155.4992,1.0,1.0,1.0
22.2,236.0016,1.0,1.0,1.0
22.25,394.4977,1.0,1.0,1.0
22.3,513.4945,1.0,1.0,1.0
22.35,584.9984,1.0,1.0,1.0
22.4,619.4992,1.0,1.0,1.0
22.45,692.4945,1.0,1.0,1.0
22.5,631.9968,1.0,1.0,1.0
22.55,610.0032,1.0,1.0,1.0
22.6,560.4976,1.0,1.0,1.0
22.65,373.0047,1.0,1.0,1.0
22.7,318.4977,1.0,1.0,1.0
22.75,280.9969,1.0,1.0,1.0
22.8,241.5008,1.0,1.0,1.0
22.85,257.0,1.0,1.0,1.0
22.9,270.5008,1.0,1.0,1.0
22.95,353.0,1.0,1.0,1.0
23.0,358.4992,1.0,1.0,1.0
23.05,495.9984,1.0,1.0,1.0
23.1,545.0016,1.0,1.0,1.0
23.15,719.0032,1.0,1.0,1.0
23.2,1061.5,1.0,1.0,1.0
23.25,1885,1.0,1.0,1.0
23.3,3746,1.0,1.0,1.0
23.35,13376.9,1.0,1.0,1.0
23.4,128304,1.0,1.0,1.0
23.45,8771997.0,1.0,1.0,1.0
23.5,1946268.5,1.0,1.0,1.0
23.55,63815,1.0,1.0,1.0
23.6,9068.56,1.0,1.0,1.0
23.65,2871.01,1.0,1.0,1.0
23.7,1381.5,1.0,1.0,1.0
23.75,909.5024,1.0,1.0,1.0
23.8,621.4976,1.0,1.0,1.0
23.85,405.4992,1.0,1.0,1.0
23.9,299.4992,1.0,1.0,1.0
23.95,213.5055,1.0,1.0,1.0
24.0,222.0016,1.0,1.0,1.0
24.05,155.4976,1.0,1.0,1.0
24.1,130.9984,1.0,1.0,1.0
24.15,100.9969,1.0,1.0,1.0
24.2,111.4992,1.0,1.0,1.0
24.25,105.5008,1.0,1.0,1.0
24.3,75.4992,1.0,1.0,1.0
24.35,65.5008,1.0,1.0,1.0
24.4,64.5008,1.0,1.0,1.0
24.45,81.4976,1.0,1.0,1.0
24.5,61.5008,1.0,1.0,1.0
24.55,46.0,1.0,1.0,1.0
24.6,28.0016,1.0,1.0,1.0
24.65,23.0,1.0,1.0,1.0
24.7,21.0,1.0,1.0,1.0
24.75,28.0,1.0,1.0,1.0
24.8,26.0,1.0,1.0,1.0
24.85,31.4992,1.0,1.0,1.0
24.9,27.0,1.0,1.0,1.0
24.95,21.0,1.0,1.0,1.0
25.0,19.0,1.0,1.0,1.0
25.05,26.4992,1.0,1.0,1.0
25.1,30.0,1.0,1.0,1.0
25.15,14.4992,1.0,1.0,1.0
25.2,20.0,1.0,1.0,1.0
25.25,17.0,1.0,1.0,1.0
25.3,8.0,1.0,1.0,1.0
25.35,9.5008,1.0,1.0,1.0
25.4,8.4992,1.0,1.0,1.0
25.45,17.0,1.0,1.0,1.0
25.5,14.5008,1.0,1.0,1.0
25.55,8.0016,1.0,1.0,1.0
25.6,12.0,1.0,1.0,1.0
25.65,5.0,1.0,1.0,1.0
25.7,25.0,1.0,1.0,1.0
25.75,10.0,1.0,1.0,1.0
25.8,12.0,1.0,1.0,1.0
25.85,5.0,1.0,1.0,1.0
25.9,9.0,1.0,1.0,1.0
25.95,6.0,1.0,1.0,1.0
26.0,6.4992,1.0,1.0,1.0
26.05,9.4992,1.0,1.0,1.0
26.1,7.0,1.0,1.0,1.0
26.15,2.0,1.0,1.0,1.0
26.2,19.0016,1.0,1.0,1.0
26.25,7.5008,1.0,1.0,1.0
26.3,8.0,1.0,1.0,1.0
26.35,10.0,1.0,1.0,1.0
26.4,6.0,1.0,1.0,1.0
26.45,11.0,1.0,1.0,1.0
26.5,2.0,1.0,1.0,1.0
26.55,6.0,1.0,1.0,1.0
26.6,9.0,1.0,1.0,1.0
26.65,0.0,1.0,1.0,1.0
26.7,3.0,1.0,1.0,1.0
26.75,2.0,1.0,1.0,1.0
26.8,7.0,1.0,1.0,1.0
26.85,2.0,1.0,1.0,1.0
26.9,4.0,1.0,1.0,1.0
26.95,9.0,1.0,1.0,1.0
27.0,3.0,1.0,1.0,1.0
27.05,6.4992,1.0,1.0,1.0
27.1,15.5008,1.0,1.0,1.0
27.15,0.0,1.0,1.0,1.0
27.2,8.0,1.0,1.0,1.0
27.25,7.0,1.0,1.0,1.0
27.3,6.0,1.0,1.0,1.0
27.35,0.0,1.0,1.0,1.0
27.4,4.0,1.0,1.0,1.0
27.45,0.4992,1.0,1.0,1.0
27.5,5.0,1.0,1.0,1.0
27.55,6.0,1.0,1.0,1.0
27.6,0.0,1.0,1.0,1.0
27.65,6.0,1.0,1.0,1.0
27.7,4.0,1.0,1.0,1.0
27.75,98.0,1.0,1.0,1.0
27.8,3.0,1.0,1.0,1.0
27.85,0.0,1.0,1.0,1.0
27.9,7.0,1.0,1.0,1.0
27.95,2.0,1.0,1.0,1.0
28.0,0.0,1.0,1.0,1.0
28.05,4.0,1.0,1.0,1.0
28.1,6.0016,1.0,1.0,1.0
28.15,2.0,1.0,1.0,1.0
28.2,7.0,1.0,1.0,1.0
28.25,6.0,1.0,1.0,1.0
28.3,0.0,1.0,1.0,1.0
28.35,6.0,1.0,1.0,1.0
28.4,3.0,1.0,1.0,1.0
28.45,6.0,1.0,1.0,1.0
28.5,7.0,1.0,1.0,1.0
28.55,1.0,1.0,1.0,1.0
28.6,6.0,1.0,1.0,1.0
28.65,2.0,1.0,1.0,1.0
28.7,60.0,1.0,1.0,1.0
28.75,4.0,1.0,1.0,1.0
28.8,5.0,1.0,1.0,1.0
28.85,0.0,1.0,1.0,1.0
28.9,8.0,1.0,1.0,1.0
28.95,0.0,1.0,1.0,1.0
29.0,4.0,1.0,1.0,1.0
29.05,6.0,1.0,1.0,1.0
29.1,0.0,1.0,1.0,1.0
29.15,2.0,1.0,1.0,1.0
29.2,6.0,1.0,1.0,1.0
29.25,6.0,1.0,1.0,1.0
29.3,1.5008,1.0,1.0,1.0
29.35,4.0,1.0,1.0,1.0
29.4,3.0,1.0,1.0,1.0
29.45,4.0,1.0,1.0,1.0
29.5,0.0,1.0,1.0,1.0
29.55,2.0,1.0,1.0,1.0
29.6,2.5008,1.0,1.0,1.0
29.65,5.0,1.0,1.0,1.0
29.7,2.0,1.0,1.0,1.0
29.75,8.0,1.0,1.0,1.0
29.8,2.0,1.0,1.0,1.0
29.85,4.0,1.0,1.0,1.0
29.9,0.0,1.0,1.0,1.0
29.95,6.4992,1.0,1.0,1.0
30.0,7.0,1.0,1.0,1.0

File: 22103_not_annealed_001_XRD_2-Theta_Omega.asc
*TYPE		=  Raw
*CLASS		=  ASCII CLASS
*SAMPLE		=
*COMMENT	=
*FNAME		=  22103_not_annealed_001_XRD_2-Theta_Omega.asc
*DATE		=  01-Jul-22 05:58

*GROUP_COUNT	=  1
*GONIO		=  SmartLab(In-plane), 0.000000
*ATTACHMENT	=  Z-Phi Stage
*ASC		=  0, 0, 0.000000, 0.000000
*I_MONOCHRO	=  Ge(220)x2, 0.000000
*FILTER		=  None
*C_MONOCHRO	=  None, 0.000000
*SLIT_NAME	=  0, Incident slit
*SLIT_NAME	=  1, Receiving slit # 1
*SLIT_NAME	=  2, Receiving slit # 2
*COUNTER	=  D/teX Ultra 250, 0
*POS_FORMAT	=  0
*SCAN_AXIS	=  2Theta/Omega
*MEAS_MODE	=  Continuous Scanning
*TARGET		=  29
*XRAY_CHAR	=  K-ALPHA1
*WAVE_LENGTH1	=  1.54059
*WAVE_LENGTH2	=  1.54441
*THICKNESS	=  0, 0.000000
*MU		=  0, 0.000000
*SCAN_MODE	=  2Theta/Omega
*SPEED_DIM	=  sec./step
*XUNIT		=  deg.
*YUNIT		=  counts
*SCALE_MODE	=  1
*REP_COUNT	=  0
*SE_COUNT	=  0
*STD_MATERIAL	=  Unknown, Unknown, 0.000000, 0.000000, 0.000000, 0.000000, 0.000000, 0.000000
*LATT_CONS	=  0, Unknown, Unknown, 0.000000, 0.000000, 0.000000, 0.000000, 0.000000, 0.000000
*SEC_COUNT	=  1
*TSPEC_SIZE	=  0
*EXTRA_SIZE	=  0
*MEMO		=

*BEGIN
*GROUP		=  0
*START		=  16
*STOP		=  30
*STEP		=  0.01
*OFFSET		=  -0.017900
*SPEED		=  31.5375
*SLIT_SPEC	=  0, 0.400mm, 0.4, 0.000000
*SLIT_SPEC	=  1, 0.400mm, 0.4, 0.000000
*SLIT_SPEC	=  2, 0.400mm, 0.4, 0.000000
*KV		=  40
*MA		=  30
*LOW		=  0.000000
*HIGH		=  0.000000
*CTEMPER	=  0, 0.000000
*CTEMPER	=  1, 0.000000
*CTEMPER	=  2, 0.000000
*PAREX		=  0, 0.000000
*PAREX		=  1, 0.000000
*PAREX		=  2, 0.000000
*PAREX		=  3, 0.000000
*PAREX		=  4, 0.000000
*PAREX		=  5, 0.000000
*PAREX		=  6, 0.000000
*PAREX		=  7, 0.000000
*PAREX		=  8, 0.000000
*PAREX		=  9, 0.000000
*PAREX		=  10, 0.000000
*PAREX		=  11, 0.000000
*PAREX		=  12, 0.000000
*PAREX		=  13, 0.000000
*PAREX		=  14, 0.000000
*PAREX		=  15, 0.000000
*FULL_SCALE	=  1130236.6
*INDEX		=  0, 0, 0
*COUNT		=  1401
3, 9.49921, 5.50079, 4
5.49921, 6.50079, 2, 3
0.000000, 4, 3.49921, 7
2, 0.000000, 14, 3.49921
0.000000, 0.499214, 3.50079, 10
0.000000, 2, 0.000000, 4
6, 2, 2, 4
4, 6, 7, 0.000000
4, 7, 2, 6
9, 7, 8, 0.000000
0.000000, 2, 0.000000, 4
2, 2, 0.000000, 4
3, 0.000000, 0.000000, 6
7, 2, 8, 11
5.50079, 2, 0.000000, 0.000000
4, 1.49921, 2.50079, 6
10, 0.000000, 6, 8.49921
0.000000, 6, 7, 11
0.000000, 0.000000, 3, 2
3, 6, 2, 3
0.000000, 4, 7, 3
4, 4, 0.000000, 10
15, 9, 2, 2
8, 6, 0.000000, 5
6.49921, 11.5008, 9, 0.000000
14.4992, 16.5008, 6, 4
4, 5, 2.49921, 8.50079
4, 2, 2, 4
5, 4, 2, 2
13, 9, 4, 10
2, 5, 8, 2
9, 0.500786, 5, 7
0.000000, 3, 0.000000, 9
2, 2, 5, 7
9.49921, 1.50079, 2, 2
2, 7, 9, 0.000000
4, 6, 6, 10
10, 4, 3, 3
8, 0.499214, 9.50079, 2
13.5008, 5, 2, 4
2, 8, 6, 10
4, 13, 0.000000, 6
6, 2, 8, 0.000000
6, 3.49921, 2.50079, 7.49921
0.000000, 7, 7, 5
7, 4.49921, 5.50079, 8
5, 6, 2, 0.000000
4, 7, 2, 13
2, 1, 3, 2
8, 4, 4, 0.000000
2, 2, 5, 0.000000
6, 3.49921, 9.50079, 7.99529
6, 2, 3, 8
2, 4, 2, 0.000000
4, 5, 9, 2
4, 6, 2, 2
9, 2, 5, 2
5, 6, 0.000000, 4
0.000000, 2, 4, 6
2, 7, 4, 6
4, 3, 7, 7
7, 3, 19, 6
0.000000, 2, 4, 10
3, 5, 2, 4
10, 19, 6, 7
4.49921, 5.50079, 3, 6
7.50079, 4, 5, 4
14.4992, 9.50079, 5, 7
7, 12, 7, 6
9, 6, 11, 12
4.50079, 9, 5, 2
6, 6.50079, 6, 0.000000
4.99843, 19.0016, 16, 12
16, 13, 10, 11
21.4992, 15.5008, 12.4992, 14.5008
10, 11, 8, 26
63.5008, 59, 92, 101.499
165, 229.002, 200, 228.997
348, 394.498, 396.504, 421.995
573.991, 580.501, 594.003, 584.998
619.499, 724.502, 707, 661.997
668.505, 723.003, 631.997, 668.498
556.498, 553.498, 544.504, 523.002
451.496, 373.005, 404.499, 372.499
301.994, 293.501, 283.006, 280.997
241.501, 271.501, 260.997, 294.501
235.997, 272.501, 270.501, 321.501
349, 383.998, 343.005, 389.995
411.995, 495.998, 494.002, 470.501
592.505, 634.997, 655.501, 719.003
1061.5, 1174.5, 1289, 1400.49
2616.49, 3029.99, 3746, 4412.98
20064.4, 30841.8, 48340.1, 77787.9
2758493.8, 8771997, 20550458, 27676624
343007, 189446, 107408, 63815
9068.56, 6757.53, 5392.51, 4237.01
1760.52, 1569.49, 1381.5, 1217.5
818.002, 769.498, 698.501, 632.504
422.003, 405.499, 378.998, 367.998
289.499, 220.002, 257.997, 213.506
222.002, 162.496, 177, 181.002
141.998, 174.002, 130.998, 160.998
122.499, 136.002, 114, 136.002
85.5008, 105.501, 92.9984, 65.4992
56.4992, 62.5008, 67.9984, 65.5008
64.5008, 49.4992, 57, 66.4992
71.9984, 75.5008, 61.5008, 42.4976
49.5008, 34, 39, 49.9984
32, 23, 28.9984, 35.5008
29.5008, 27.4992, 19.5008, 28
26, 12, 25.4992, 24.5008
16.5008, 27, 27, 12
12.4992, 13.5008, 6.99843, 16.0016
23.5008, 26.4992, 19.5008, 14
20.5008, 24.4992, 25.5008, 14.4992
20, 13.5008, 14, 13.4992
25, 12, 8, 6.49921
6, 8, 15, 13
14, 17, 1.49921, 5.50079
12, 20.5008, 13.9984, 8.00157
12, 18, 5, 4
9, 7, 25, 7
8, 4, 4, 8
13, 5, 6, 9
6, 4, 2, 6
6.49921, 5.50079, 13, 4
4, 10, 7, 6
8, 11, 9, 12.9984
12.4992, 7.50079, 8, 15
17.5008, 1, 6, 10
6, 5, 2.49921, 4.50079
8, 5, 2, 9
5, 0.000000, 9, 14
2, 0.000000, 0.000000, 8
8, 6, 0.000000, 2
7, 2, 2, 7
13, 8, 4, 4
5, 9, 5, 0.000000
6, 6.49921, 4.50079, 2.99843
4, 12.4992, 5.50079, 0.000000
8, 13, 6, 5
3, 12, 6, 8
10, 11, 2, 7
8, 0.499214, 1.50079, 6
8.00157, 2, 7, 6
0.000000, 2, 4, 6.49921
9, 2, 4, 5
2, 3, 0.000000, 8
10, 0.000000, 2, 0.000000
10, 2, 5, 2
0.000000, 6, 4, 13
3, 5.99843, 6.00157, 2
21, 6, 3, 8
2, 6, 4, 4
8, 7, 4, 6
3, 2, 2, 8
3, 0.000000, 7, 7
0.000000, 2, 0.000000, 1
2, 2, 0.000000, 2
0.000000, 4, 3, 4
5, 0.000000, 6, 2
3, 3, 8, 4
5, 10, 4.49921, 3.50079
3, 6, 0.000000, 2
3, 4, 3, 2
6, 7, 13, 4
5, 3.49921, 1.50079, 0.000000
5, 5, 2, 6
0.000000, 4, 2, 0.000000
3, 0.000000, 2, 2
2.50079, 2, 0.000000, 0.000000
0.000000, 2, 2, 4
3.49921, 7, 2, 2.50079
8, 4, 2, 5
6, 0.000000, 5, 6.49921
7
*END

*EOF

File: 22103_not_annealed_002_XRD.csv
#twotheta, yobs, ycal, bkg, diff
42.0,1.0,1.0,1.0,1.0
42.04,4.0,1.0,1.0,1.0
42.08,5.0,1.0,1.0,1.0
42.12,4.0,1.0,1.0,1.0
42.16,0.0,1.0,1.0,1.0
42.2,2.0,1.0,1.0,1.0
42.24,0.0,1.0,1.0,1.0
42.28,3.0,1.0,1.0,1.0
42.32,4.0,1.0,1.0,1.0
42.36,0.0,1.0,1.0,1.0
42.4,3.0,1.0,1.0,1.0
42.44,4.0,1.0,1.0,1.0
42.48,4.0,1.0,1.0,1.0
42.52,6.0,1.0,1.0,1.0
42.56,2.0,1.0,1.0,1.0
42.6,0.0,1.0,1.0,1.0
42.64,0.0,1.0,1.0,1.0
42.68,0.0,1.0,1.0,1.0
42.72,0.0,1.0,1.0,1.0
42.76,10.0,1.0,1.0,1.0
42.8,8.0,1.0,1.0,1.0
42.84,2.5056,1.0,1.0,1.0
42.88,2.0,1.0,1.0,1.0
42.92,8.4944,1.0,1.0,1.0
42.96,5.0,1.0,1.0,1.0
43.0,7.0,1.0,1.0,1.0
43.04,0.0,1.0,1.0,1.0
43.08,5.0,1.0,1.0,1.0
43.12,10.9889,1.0,1.0,1.0
43.16,9.0,1.0,1.0,1.0
43.2,0.0,1.0,1.0,1.0
43.24,5.0,1.0,1.0,1.0
43.28,8.0,1.0,1.0,1.0
43.32,12.0,1.0,1.0,1.0
43.36,7.5056,1.0,1.0,1.0
43.4,19.4944,1.0,1.0,1.0
43.44,23.0,1.0,1.0,1.0
43.48,17.0,1.0,1.0,1.0
43.52,21.0,1.0,1.0,1.0
43.56,17.0,1.0,1.0,1.0
43.6,20.4944,1.0,1.0,1.0
43.64,30.0,1.0,1.0,1.0
43.68,33.5056,1.0,1.0,1.0
43.72,32.4944,1.0,1.0,1.0
43.76,10.0,1.0,1.0,1.0
43.8,22.5056,1.0,1.0,1.0
43.84,28.0,1.0,1.0,1.0
43.88,24.0,1.0,1.0,1.0
43.92,4.0,1.0,1.0,1.0
43.96,26.0,1.0,1.0,1.0
44.0,34.0,1.0,1.0,1.0
44.04,16.9889,1.0,1.0,1.0
44.08,17.5056,1.0,1.0,1.0
44.12,8.5056,1.0,1.0,1.0
44.16,6.0,1.0,1.0,1.0
44.2,20.0,1.0,1.0,1.0
44.24,17.5056,1.0,1.0,1.0
44.28,11.5056,1.0,1.0,1.0
44.32,12.0,1.0,1.0,1.0
44.36,19.0,1.0,1.0,1.0
44.4,28.4833,1.0,1.0,1.0
44.44,30.4944,1.0,1.0,1.0
44.48,24.5056,1.0,1.0,1.0
44.52,22.0,1.0,1.0,1.0
44.56,38.0,1.0,1.0,1.0
44.6,27.0,1.0,1.0,1.0
44.64,41.0111,1.0,1.0,1.0
44.68,56.0,1.0,1.0,1.0
44.72,38.0,1.0,1.0,1.0
44.76,44.0,1.0,1.0,1.0
44.8,68.9889,1.0,1.0,1.0
44.84,67.9889,1.0,1.0,1.0
44.88,96.0111,1.0,1.0,1.0
44.92,107.5056,1.0,1.0,1.0
44.96,154.9667,1.0,1.0,1.0
45.0,189.4944,1.0,1.0,1.0
45.04,236.0222,1.0,1.0,1.0
45.08,311.0111,1.0,1.0,1.0
45.12,323.5056,1.0,1.0,1.0
45.16,400.4944,1.0,1.0,1.0
45.2,491.9667,1.0,1.0,1.0
45.24,689.9889,1.0,1.0,1.0
45.28,870.8778,1.0,1.0,1.0
45.32,1088.99,1.0,1.0,1.0
45.36,1346.47,1.0,1.0,1.0
45.4,1564.49,1.0,1.0,1.0
45.44,1779.0,1.0,1.0,1.0
45.48,1986.56,1.0,1.0,1.0
45.52,2107.94,1.0,1.0,1.0
45.56,2277.08,1.0,1.0,1.0
45.6,2132.06,1.0,1.0,1.0
45.64,2017.55,1.0,1.0,1.0
45.68,1985.96,1.0,1.0,1.0
45.72,1846.03,1.0,1.0,1.0
45.76,1865.97,1.0,1.0,1.0
45.8,1904.52,1.0,1.0,1.0
45.84,1911.57,1.0,1.0,1.0
45.88,1981.46,1.0,1.0,1.0
45.92,2169.13,1.0,1.0,1.0
45.96,2114.53,1.0,1.0,1.0
46.0,2014.46,1.0,1.0,1.0
46.04,1914.44,1.0,1.0,1.0
46.08,1657.08,1.0,1.0,1.0
46.12,1326.98,1.0,1.0,1.0
46.16,1044.06,1.0,1.0,1.0
46.2,761.4944,1.0,1.0,1.0
46.24,498.4944,1.0,1.0,1.0
46.28,338.9778,1.0,1.0,1.0
46.32,244.0,1.0,1.0,1.0
46.36,257.4833,1.0,1.0,1.0
46.4,211.5056,1.0,1.0,1.0
46.44,221.9778,1.0,1.0,1.0
46.48,222.5167,1.0,1.0,1.0
46.52,182.0111,1.0,1.0,1.0
46.56,154.4944,1.0,1.0,1.0
46.6,143.0111,1.0,1.0,1.0
46.64,68.0,1.0,1.0,1.0
46.68,94.9778,1.0,1.0,1.0
46.72,100.0111,1.0,1.0,1.0
46.76,101.9889,1.0,1.0,1.0
46.8,116.5056,1.0,1.0,1.0
46.84,148.0222,1.0,1.0,1.0
46.88,135.5056,1.0,1.0,1.0
46.92,135.0111,1.0,1.0,1.0
46.96,112.9778,1.0,1.0,1.0
47.0,118.9889,1.0,1.0,1.0
47.04,86.4833,1.0,1.0,1.0
47.08,112.9889,1.0,1.0,1.0
47.12,99.0,1.0,1.0,1.0
47.16,119.5167,1.0,1.0,1.0
47.2,139.5278,1.0,1.0,1.0
47.24,170.0,1.0,1.0,1.0
47.28,198.9889,1.0,1.0,1.0
47.32,201.4944,1.0,1.0,1.0
47.36,224.9889,1.0,1.0,1.0
47.4,310.5278,1.0,1.0,1.0
47.44,368.0111,1.0,1.0,1.0
47.48,450.9778,1.0,1.0,1.0
47.52,556.4944,1.0,1.0,1.0
47.56,634.0555,1.0,1.0,1.0
47.6,790.4944,1.0,1.0,1.0
47.64,963.0111,1.0,1.0,1.0
47.68,1290.54,1.0,1.0,1.0
47.72,1892.94,1.0,1.0,1.0
47.76,3327.01,1.0,1.0,1.0
47.8,6919.77,1.0,1.0,1.0
47.84,20451.3,1.0,1.0,1.0
47.88,71084.6,1.0,1.0,1.0
47.92,221716.625,1.0,1.0,1.0
47.96,767135.875,1.0,1.0,1.0
48.0,17946086.0,1.0,1.0,1.0
48.04,821690.25,1.0,1.0,1.0
48.08,83763.75,1.0,1.0,1.0
48.12,22366.1,1.0,1.0,1.0
48.16,7707.79,1.0,1.0,1.0
48.2,3085.1,1.0,1.0,1.0
48.24,1503.53,1.0,1.0,1.0
48.28,926.4944,1.0,1.0,1.0
48.32,570.5278,1.0,1.0,1.0
48.36,459.9889,1.0,1.0,1.0
48.4,352.0,1.0,1.0,1.0
48.44,250.0222,1.0,1.0,1.0
48.48,212.0,1.0,1.0,1.0
48.52,199.4722,1.0,1.0,1.0
48.56,129.0,1.0,1.0,1.0
48.6,95.0111,1.0,1.0,1.0
48.64,117.0,1.0,1.0,1.0
48.68,54.5056,1.0,1.0,1.0
48.72,65.4944,1.0,1.0,1.0
48.76,64.5056,1.0,1.0,1.0
48.8,72.0,1.0,1.0,1.0
48.84,52.4944,1.0,1.0,1.0
48.88,49.4944,1.0,1.0,1.0
48.92,43.9889,1.0,1.0,1.0
48.96,30.0,1.0,1.0,1.0
49.0,20.4944,1.0,1.0,1.0
49.04,21.0,1.0,1.0,1.0
49.08,17.0,1.0,1.0,1.0
49.12,18.0,1.0,1.0,1.0
49.16,13.4944,1.0,1.0,1.0
49.2,9.0,1.0,1.0,1.0
49.24,15.4944,1.0,1.0,1.0
49.28,17.0,1.0,1.0,1.0
49.32,10.0,1.0,1.0,1.0
49.36,21.0,1.0,1.0,1.0
49.4,7.0,1.0,1.0,1.0
49.44,9.5056,1.0,1.0,1.0
49.48,20.5056,1.0,1.0,1.0
49.52,8.0,1.0,1.0,1.0
49.56,9.0,1.0,1.0,1.0
49.6,11.0,1.0,1.0,1.0
49.64,13.0,1.0,1.0,1.0
49.68,2.4944,1.0,1.0,1.0
49.72,9.4944,1.0,1.0,1.0
49.76,2.0,1.0,1.0,1.0
49.8,4.0,1.0,1.0,1.0
49.84,3.0,1.0,1.0,1.0
49.88,8.5056,1.0,1.0,1.0
49.92,7.4944,1.0,1.0,1.0
49.96,3.0,1.0,1.0,1.0
50.0,3.0,1.0,1.0,1.0
50.04,7.0,1.0,1.0,1.0
50.08,7.0111,1.0,1.0,1.0
50.12,6.0,1.0,1.0,1.0
50.16,7.0,1.0,1.0,1.0
50.2,6.0,1.0,1.0,1.0
50.24,1.0,1.0,1.0,1.0
50.28,5.0,1.0,1.0,1.0
50.32,2.5056,1.0,1.0,1.0
50.36,6.0,1.0,1.0,1.0
50.4,0.0,1.0,1.0,1.0
50.44,2.4944,1.0,1.0,1.0
50.48,3.0,1.0,1.0,1.0
50.52,4.0,1.0,1.0,1.0
50.56,0.5056,1.0,1.0,1.0
50.6,3.0,1.0,1.0,1.0
50.64,8.0,1.0,1.0,1.0
50.68,10.0,1.0,1.0,1.0
50.72,14.0,1.0,1.0,1.0
50.76,8.0,1.0,1.0,1.0
50.8,3.0,1.0,1.0,1.0
50.84,2.0,1.0,1.0,1.0
50.88,1.5056,1.0,1.0,1.0
50.92,3.0,1.0,1.0,1.0
50.96,2.0,1.0,1.0,1.0
51.0,2.0,1.0,1.0,1.0
51.04,0.0,1.0,1.0,1.0
51.08,0.0,1.0,1.0,1.0
51.12,2.0,1.0,1.0,1.0
51.16,0.0,1.0,1.0,1.0
51.2,2.0,1.0,1.0,1.0
51.24,0.0,1.0,1.0,1.0
51.28,4.0,1.0,1.0,1.0
51.32,4.0,1.0,1.0,1.0
51.36,2.0,1.0,1.0,1.0
51.4,1.0,1.0,1.0,1.0
51.44,8.0,1.0,1.0,1.0
51.48,4.0,1.0,1.0,1.0
51.52,4.0,1.0,1.0,1.0
51.56,0.0,1.0,1.0,1.0
51.6,3.0,1.0,1.0,1.0
51.64,0.0,1.0,1.0,1.0
51.68,0.0,1.0,1.0,1.0
51.72,0.0,1.0,1.0,1.0
51.76,0.0,1.0,1.0,1.0
51.8,4.0,1.0,1.0,1.0
51.84,3.0,1.0,1.0,1.0
51.88,2.0,1.0,1.0,1.0
51.92,6.0,1.0,1.0,1.0
51.96,2.0,1.0,1.0,1.0
52.0,2.0,1.0,1.0,1.0