Folder: Analysis/XRD:XRR/SCO/22102_S(CT)OL

File: 22102_S(CT)OL_002_XRD_Ann.csv
#twotheta, yobs, ycal, bkg, diff
42.0,11.0,1.0,1.0,1.0
42.04,14.5056,1.0,1.0,1.0
42.08,10.0,1.0,1.0,1.0
42.12,4.0,1.0,1.0,1.0
42.16,3.0,1.0,1.0,1.0
42.2,7.4944,1.0,1.0,1.0
42.24,19.0,1.0,1.0,1.0
42.28,6.0,1.0,1.0,1.0
42.32,7.0,1.0,1.0,1.0
42.36,8.0,1.0,1.0,1.0
42.4,3.0,1.0,1.0,1.0
42.44,8.4944,1.0,1.0,1.0
42.48,4.5056,1.0,1.0,1.0
42.52,8.5056,1.0,1.0,1.0
42.56,16.0,1.0,1.0,1.0
42.6,11.4944,1.0,1.0,1.0
42.64,2.0,1.0,1.0,1.0
42.68,9.0,1.0,1.0,1.0
42.72,8.0,1.0,1.0,1.0
42.76,13.4944,1.0,1.0,1.0
42.8,11.0,1.0,1.0,1.0
42.84,12.0,1.0,1.0,1.0
42.88,4.0,1.0,1.0,1.0
42.92,15.0,1.0,1.0,1.0
42.96,12.0,1.0,1.0,1.0
43.0,11.0,1.0,1.0,1.0
43.04,11.5056,1.0,1.0,1.0
43.08,17.0,1.0,1.0,1.0
43.12,9.0,1.0,1.0,1.0
43.16,14.0,1.0,1.0,1.0
43.2,11.4944,1.0,1.0,1.0
43.24,20.4944,1.0,1.0,1.0
43.28,8.0,1.0,1.0,1.0
43.32,13.0,1.0,1.0,1.0
43.36,10.0,1.0,1.0,1.0
43.4,16.0111,1.0,1.0,1.0
43.44,18.0,1.0,1.0,1.0
43.48,2.0,1.0,1.0,1.0
43.52,13.0,1.0,1.0,1.0
43.56,20.4944,1.0,1.0,1.0
43.6,15.0111,1.0,1.0,1.0
43.64,21.4944,1.0,1.0,1.0
43.68,18.4944,1.0,1.0,1.0
43.72,19.9889,1.0,1.0,1.0
43.76,16.5056,1.0,1.0,1.0
43.8,17.0,1.0,1.0,1.0
43.84,20.4833,1.0,1.0,1.0
43.88,33.0,1.0,1.0,1.0
43.92,29.0,1.0,1.0,1.0
43.96,30.4944,1.0,1.0,1.0
44.0,25.4944,1.0,1.0,1.0
44.04,30.0,1.0,1.0,1.0
44.08,44.5167,1.0,1.0,1.0
44.12,22.0,1.0,1.0,1.0
44.16,49.5056,1.0,1.0,1.0
44.2,56.0111,1.0,1.0,1.0
44.24,35.0111,1.0,1.0,1.0
44.28,51.0,1.0,1.0,1.0
44.32,43.0111,1.0,1.0,1.0
44.36,60.0,1.0,1.0,1.0
44.4,62.5056,1.0,1.0,1.0
44.44,77.0,1.0,1.0,1.0
44.48,115.4944,1.0,1.0,1.0
44.52,87.0,1.0,1.0,1.0
44.56,70.9889,1.0,1.0,1.0
44.6,119.5167,1.0,1.0,1.0
44.64,125.4944,1.0,1.0,1.0
44.68,111.4944,1.0,1.0,1.0
44.72,134.0111,1.0,1.0,1.0
44.76,149.0,1.0,1.0,1.0
44.8,145.5278,1.0,1.0,1.0
44.84,200.0111,1.0,1.0,1.0
44.88,159.0,1.0,1.0,1.0
44.92,218.4833,1.0,1.0,1.0
44.96,256.0,1.0,1.0,1.0
45.0,215.0,1.0,1.0,1.0
45.04,222.0111,1.0,1.0,1.0
45.08,260.4833,1.0,1.0,1.0
45.12,282.0111,1.0,1.0,1.0
45.16,288.0,1.0,1.0,1.0
45.2,250.0,1.0,1.0,1.0
45.24,267.4944,1.0,1.0,1.0
45.28,230.0333,1.0,1.0,1.0
45.32,199.9778,1.0,1.0,1.0
45.36,236.4833,1.0,1.0,1.0
45.4,258.0222,1.0,1.0,1.0
45.44,241.9889,1.0,1.0,1.0
45.48,333.9778,1.0,1.0,1.0
45.52,336.5167,1.0,1.0,1.0
45.56,373.4833,1.0,1.0,1.0
45.6,436.0111,1.0,1.0,1.0
45.64,455.4833,1.0,1.0,1.0
45.68,543.9889,1.0,1.0,1.0
45.72,540.4722,1.0,1.0,1.0
45.76,572.4833,1.0,1.0,1.0
45.8,586.0,1.0,1.0,1.0
45.84,657.55,1.0,1.0,1.0
45.88,691.0222,1.0,1.0,1.0
45.92,676.4722,1.0,1.0,1.0
45.96,721.0,1.0,1.0,1.0
46.0,809.0,1.0,1.0,1.0
46.04,958.5278,1.0,1.0,1.0
46.08,1118.96,1.0,1.0,1.0
46.12,1134.52,1.0,1.0,1.0
46.16,1309.51,1.0,1.0,1.0
46.2,1435.04,1.0,1.0,1.0
46.24,1560.03,1.0,1.0,1.0
46.28,1543.46,1.0,1.0,1.0
46.32,1682.45,1.0,1.0,1.0
46.36,1620.04,1.0,1.0,1.0
46.4,1577.49,1.0,1.0,1.0
46.44,1452.63,1.0,1.0,1.0
46.48,1371.01,1.0,1.0,1.0
46.52,1373.49,1.0,1.0,1.0
46.56,1161.53,1.0,1.0,1.0
46.6,1063.52,1.0,1.0,1.0
46.64,929.9889,1.0,1.0,1.0
46.68,806.9778,1.0,1.0,1.0
46.72,709.9889,1.0,1.0,1.0
46.76,608.5389,1.0,1.0,1.0
46.8,495.5611,1.0,1.0,1.0
46.84,424.0555,1.0,1.0,1.0
46.88,381.4833,1.0,1.0,1.0
46.92,341.4944,1.0,1.0,1.0
46.96,281.0,1.0,1.0,1.0
47.0,287.9889,1.0,1.0,1.0
47.04,285.5167,1.0,1.0,1.0
47.08,269.9889,1.0,1.0,1.0
47.12,253.9778,1.0,1.0,1.0
47.16,232.0,1.0,1.0,1.0
47.2,256.5056,1.0,1.0,1.0
47.24,230.5167,1.0,1.0,1.0
47.28,309.9889,1.0,1.0,1.0
47.32,379.4944,1.0,1.0,1.0
47.36,436.9778,1.0,1.0,1.0
47.4,538.4722,1.0,1.0,1.0
47.44,585.9889,1.0,1.0,1.0
47.48,740.4833,1.0,1.0,1.0
47.52,720.5278,1.0,1.0,1.0
47.56,784.0667,1.0,1.0,1.0
47.6,962.5056,1.0,1.0,1.0
47.64,1135.97,1.0,1.0,1.0
47.68,1533.94,1.0,1.0,1.0
47.72,2228.99,1.0,1.0,1.0
47.76,3834.84,1.0,1.0,1.0
47.8,8657.56,1.0,1.0,1.0
47.84,24124.4,1.0,1.0,1.0
47.88,77839,1.0,1.0,1.0
47.92,157120,1.0,1.0,1.0
47.96,163294,1.0,1.0,1.0
48.0,144103,1.0,1.0,1.0
48.04,124761,1.0,1.0,1.0
48.08,37653.8,1.0,1.0,1.0
48.12,16590.9,1.0,1.0,1.0
48.16,6775.65,1.0,1.0,1.0
48.2,2970.53,1.0,1.0,1.0
48.24,1497.02,1.0,1.0,1.0
48.28,885.5278,1.0,1.0,1.0
48.32,596.0444,1.0,1.0,1.0
48.36,473.5056,1.0,1.0,1.0
48.4,388.4944,1.0,1.0,1.0
48.44,412.0111,1.0,1.0,1.0
48.48,354.9778,1.0,1.0,1.0
48.52,346.0222,1.0,1.0,1.0
48.56,311.0111,1.0,1.0,1.0
48.6,260.5056,1.0,1.0,1.0
48.64,232.5278,1.0,1.0,1.0
48.68,140.4833,1.0,1.0,1.0
48.72,128.9889,1.0,1.0,1.0
48.76,118.9889,1.0,1.0,1.0
48.8,117.9778,1.0,1.0,1.0
48.84,103.9889,1.0,1.0,1.0
48.88,98.4833,1.0,1.0,1.0
48.92,96.0,1.0,1.0,1.0
48.96,65.0,1.0,1.0,1.0
49.0,74.0111,1.0,1.0,1.0
49.04,66.9889,1.0,1.0,1.0
49.08,61.0,1.0,1.0,1.0
49.12,74.9889,1.0,1.0,1.0
49.16,40.4833,1.0,1.0,1.0
49.2,53.0,1.0,1.0,1.0
49.24,57.5167,1.0,1.0,1.0
49.28,38.0,1.0,1.0,1.0
49.32,30.0,1.0,1.0,1.0
49.36,31.0,1.0,1.0,1.0
49.4,37.0222,1.0,1.0,1.0
49.44,28.0,1.0,1.0,1.0
49.48,24.0,1.0,1.0,1.0
49.52,24.9889,1.0,1.0,1.0
49.56,30.0,1.0,1.0,1.0
49.6,33.0,1.0,1.0,1.0
49.64,10.0,1.0,1.0,1.0
49.68,28.0,1.0,1.0,1.0
49.72,30.5056,1.0,1.0,1.0
49.76,29.4944,1.0,1.0,1.0
49.8,21.0,1.0,1.0,1.0
49.84,27.0,1.0,1.0,1.0
49.88,19.0,1.0,1.0,1.0
49.92,19.5056,1.0,1.0,1.0
49.96,18.0,1.0,1.0,1.0
50.0,14.0,1.0,1.0,1.0
50.04,8.5056,1.0,1.0,1.0
50.08,9.9889,1.0,1.0,1.0
50.12,13.0,1.0,1.0,1.0
50.16,9.0,1.0,1.0,1.0
50.2,6.0,1.0,1.0,1.0
50.24,10.0111,1.0,1.0,1.0
50.28,14.0,1.0,1.0,1.0
50.32,7.4944,1.0,1.0,1.0
50.36,4.0,1.0,1.0,1.0
50.4,10.9889,1.0,1.0,1.0
50.44,6.0,1.0,1.0,1.0
50.48,14.0,1.0,1.0,1.0
50.52,3.0,1.0,1.0,1.0
50.56,17.0,1.0,1.0,1.0
50.6,11.0111,1.0,1.0,1.0
50.64,2.0,1.0,1.0,1.0
50.68,18.5056,1.0,1.0,1.0
50.72,7.0,1.0,1.0,1.0
50.76,13.0,1.0,1.0,1.0
50.8,18.0,1.0,1.0,1.0
50.84,4.0,1.0,1.0,1.0
50.88,18.0,1.0,1.0,1.0
50.92,9.0,1.0,1.0,1.0
50.96,9.0,1.0,1.0,1.0
51.0,19.0,1.0,1.0,1.0
51.04,6.0,1.0,1.0,1.0
51.08,4.0,1.0,1.0,1.0
51.12,9.5056,1.0,1.0,1.0
51.16,7.0,1.0,1.0,1.0
51.2,0.0,1.0,1.0,1.0
51.24,10.0,1.0,1.0,1.0
51.28,3.0,1.0,1.0,1.0
51.32,9.5056,1.0,1.0,1.0
51.36,9.4944,1.0,1.0,1.0
51.4,9.0,1.0,1.0,1.0
51.44,7.0,1.0,1.0,1.0
51.48,10.0,1.0,1.0,1.0
51.52,0.0,1.0,1.0,1.0
51.56,13.0,1.0,1.0,1.0
51.6,8.0,1.0,1.0,1.0
51.64,6.5056,1.0,1.0,1.0
51.68,4.0,1.0,1.0,1.0
51.72,4.0,1.0,1.0,1.0
51.76,5.0,1.0,1.0,1.0
51.8,9.0,1.0,1.0,1.0
51.84,58.0,1.0,1.0,1.0
51.88,7.0,1.0,1.0,1.0
51.92,16.0,1.0,1.0,1.0
51.96,7.0,1.0,1.0,1.0
52.0,4.0,1.0,1.0,1.0

File: 22102_S(CT)OL_002_XRD_Ann_2-Theta_Omega.asc
*TYPE		=  Raw
*CLASS		=  ASCII CLASS
*SAMPLE		=
*COMMENT	=
*FNAME		=  22102_S(CT)OL_002_XRD_Ann_2-Theta_Omega.asc
*DATE		=  15-Jul-22 21:44

*GROUP_COUNT	=  1
*GONIO		=  SmartLab(In-plane), 0.000000
*ATTACHMENT	=  Z-Phi Stage
*ASC		=  0, 0, 0.000000, 0.000000
*I_MONOCHRO	=  Ge(220)x2, 0.000000
*FILTER		=  None
*C_MONOCHRO	=  None, 0.000000
*SLIT_NAME	=  0, Incident slit
*SLIT_NAME	=  1, Receiving slit # 1
*SLIT_NAME	=  2, Receiving slit # 2
*COUNTER	=  D/teX Ultra 250, 0
*POS_FORMAT	=  0
*SCAN_AXIS	=  2Theta/Omega
*MEAS_MODE	=  Continuous Scanning
*TARGET		=  29
*XRAY_CHAR	=  K-ALPHA1
*WAVE_LENGTH1	=  1.54059
*WAVE_LENGTH2	=  1.54441
*THICKNESS	=  0, 0.000000
*MU		=  0, 0.000000
*SCAN_MODE	=  2Theta/Omega
*SPEED_DIM	=  sec./step
*XUNIT		=  deg.
*YUNIT		=  counts
*SCALE_MODE	=  1
*REP_COUNT	=  0
*SE_COUNT	=  0
*STD_MATERIAL	=  Unknown, Unknown, 0.000000, 0.000000, 0.000000, 0.000000, 0.000000, 0.000000
*LATT_CONS	=  0, Unknown, Unknown, 0.000000, 0.000000, 0.000000, 0.000000, 0.000000, 0.000000
*SEC_COUNT	=  1
*TSPEC_SIZE	=  0
*EXTRA_SIZE	=  0
*MEMO		=

*BEGIN
*GROUP		=  0
*START		=  42
*STOP		=  52
*STEP		=  0.01
*OFFSET		=  -0.104500
*SPEED		=  23.9588
*SLIT_SPEC	=  0, 0.400mm, 0.4, 0.000000
*SLIT_SPEC	=  1, 0.400mm, 0.4, 0.000000
*SLIT_SPEC	=  2, 0.400mm, 0.4, 0.000000
*KV		=  40
*MA		=  30
*LOW		=  0.000000
*HIGH		=  0.000000
*CTEMPER	=  0, 0.000000
*CTEMPER	=  1, 0.000000
*CTEMPER	=  2, 0.000000
*PAREX		=  0, 0.000000
*PAREX		=  1, 0.000000
*PAREX		=  2, 0.000000
*PAREX		=  3, 0.000000
*PAREX		=  4, 0.000000
*PAREX		=  5, 0.000000
*PAREX		=  6, 0.000000
*PAREX		=  7, 0.000000
*PAREX		=  8, 0.000000
*PAREX		=  9, 0.000000
*PAREX		=  10, 0.000000
*PAREX		=  11, 0.000000
*PAREX		=  12, 0.000000
*PAREX		=  13, 0.000000
*PAREX		=  14, 0.000000
*PAREX		=  15, 0.000000
*FULL_SCALE	=  8985.43
*INDEX		=  0, 0, 0
*COUNT		=  1001
11, 5, 13, 6.49445
14.5056, 8, 4.98889, 11.0111
10, 10, 8, 2
4, 4.49445, 16, 3.50555
3, 7, 9, 6
7.49445, 10.5056, 2, 10
19, 12, 8, 12
6, 7, 4, 15
7, 15, 7, 1
8, 21, 14.9889, 8.01111
3, 4, 2, 40
8.49445, 4.50555, 4, 28.4944
4.50555, 2, 10, 5.49445
8.50555, 3, 9, 7
16, 13, 10, 15
11.4944, 7.50555, 13, 7
2, 8, 17, 7
9, 8, 13, 5
8, 20, 12, 5
13.4944, 3.50555, 13, 12
11, 13, 10, 9
12, 14, 0.000000, 2
4, 4, 5, 13
15, 8, 8.49445, 18.5056
12, 15, 16.4944, 3
11, 14.5056, 7, 5.98889
11.5056, 13.5056, 8, 19
17, 14, 19, 10
9, 15, 6, 9
14, 13, 12, 11
11.4944, 18.5056, 19, 12
20.4944, 14.5056, 15, 27
8, 15.4944, 14, 8.50555
13, 12, 14, 7
10, 11, 9, 14.9889
16.0111, 13, 17.9889, 22.0111
18, 20.4944, 20.5056, 9
2, 10.4944, 22.5056, 18
13, 16, 13.4944, 14.5056
20.4944, 18.5056, 31, 12.9889
15.0111, 21, 20, 17
21.4944, 19, 13.5056, 20
18.4944, 25, 21.5056, 31
19.9889, 19.5056, 20, 18
16.5056, 31, 27.4944, 44.5056
17, 31, 34.4944, 17.5056
20.4833, 27, 34.5167, 34.4944
33, 36.5056, 20, 22.4944
29, 29.5056, 27.4944, 27.5056
30.4944, 27.4944, 23.0111, 30
25.4944, 24.5056, 36, 32.4944
30, 50.4944, 28, 41.4944
44.5167, 29, 26, 23
22, 40.4944, 62.5056, 29.4944
49.5056, 35.9889, 47.0111, 45.9889
56.0111, 34.4944, 40, 36.9889
35.0111, 38.5056, 51.9889, 47.5056
51, 52.5056, 39.4944, 51.4944
43.0111, 60.4944, 40, 66.4944
60, 55.0111, 71.4944, 58.4944
62.5056, 66.5056, 62, 65.4944
77, 72.4944, 82.5056, 77.9889
115.494, 98.5167, 88, 86
87, 104, 108.989, 102.517
70.9889, 102, 93.4944, 110.494
119.517, 126.494, 92.4944, 123.506
125.494, 137.494, 91.5056, 132.506
111.494, 124.011, 131, 131.483
134.011, 139.989, 141.506, 128.494
149, 125.022, 168.989, 149.978
145.528, 187.989, 148.989, 202.506
200.011, 200.494, 196.483, 192.011
159, 213.517, 183.461, 226.022
218.483, 214.517, 217.494, 211.506
256, 238.011, 224.989, 270
215, 259.506, 265.494, 234.978
222.011, 242.494, 273.011, 277.506
260.483, 279.033, 288.461, 303.011
282.011, 267.494, 275.978, 300.517
288, 276.011, 242, 262.494
250, 241.517, 276.461, 266.022
267.494, 273, 276, 262.483
230.033, 275.483, 241.022, 231.483
199.978, 251.011, 256.506, 293.517
236.483, 251, 249.494, 258.011
258.022, 279.472, 268.022, 278.472
241.989, 260.517, 257.022, 289.978
333.978, 323.011, 327.011, 314
336.517, 386.989, 371.483, 348.528
373.483, 385.506, 405.483, 377.506
436.011, 430.45, 471.528, 442.011
455.483, 493.517, 465.978, 492.528
543.989, 525.967, 495.517, 524.506
540.472, 533.011, 573.506, 555.033
572.483, 545.978, 607.494, 593.022
586, 574, 596, 645.472
657.55, 657.472, 614.506, 669.967
691.022, 668.956, 671.044, 670.506
676.472, 749.528, 745.978, 725.506
721, 831.483, 789.022, 805.483
809, 794.506, 895.461, 918.494
958.528, 976.978, 910.011, 991.528
1118.96, 1085.01, 1126, 1151.01
1134.52, 1121.49, 1220.98, 1255.92
1309.51, 1262.56, 1349.98, 1343.98
1435.04, 1409.01, 1468.96, 1576.01
1560.03, 1534.46, 1552.99, 1606.51
1543.46, 1668.51, 1624.54, 1592.49
1682.45, 1720.57, 1694.94, 1661.01
1620.04, 1607.44, 1576.07, 1555.43
1577.49, 1552.55, 1568.52, 1574.91
1452.63, 1504.9, 1527.06, 1538.49
1371.01, 1351.98, 1438.01, 1404.01
1373.49, 1319.01, 1353.02, 1249.01
1161.53, 1231.94, 1154, 1144.51
1063.52, 1036.51, 980.933, 972.55
929.989, 958.044, 868, 881.472
806.978, 744.044, 777.539, 752.989
709.989, 625.033, 673.472, 648.483
608.539, 662, 608.989, 563.483
495.561, 480.933, 487.539, 442.461
424.056, 377.989, 427.494, 401.011
381.483, 339.989, 345.539, 344.494
341.494, 346.483, 317.528, 315
281, 287.989, 263.483, 283.022
287.989, 287, 244.011, 261.483
285.517, 232.989, 227.517, 260.506
269.989, 226.494, 230.506, 260
253.978, 243.528, 254, 233.494
232, 283.922, 269.089, 214.506
256.506, 240.956, 242.517, 275
230.517, 393.978, 295, 283.011
309.989, 324.494, 334.506, 352.989
379.494, 396, 434.967, 416.561
436.978, 501.989, 499.011, 526.494
538.472, 509.011, 612.011, 627.494
585.989, 665.506, 681.967, 694.022
740.483, 712.978, 762.067, 812.956
720.528, 826.011, 787.967, 861.956
784.067, 868.517, 836.922, 875.033
962.506, 993.989, 1030.99, 1087.52
1135.97, 1208.02, 1247.94, 1445.99
1533.94, 1679.59, 1712.89, 1988.04
2228.99, 2422.9, 2872.98, 3279.48
3834.84, 4790.88, 5803.43, 6963.13
8657.56, 10983.7, 13797.9, 18384.1
24124.4, 33148.4, 46568.2, 58630.7
77839, 101658, 126445, 145792
157120, 159788, 158631, 157269
163294, 172077, 168203, 156568
144103, 133995, 123962, 121142
124761, 119396, 78260.2, 49634.6
37653.8, 31082.8, 25344.1, 20492.3
16590.9, 13402.3, 10445.8, 8407.68
6775.65, 5525.03, 4466.16, 3680.72
2970.53, 2491.51, 2100.04, 1840.02
1497.02, 1315, 1047.57, 1015.47
885.528, 736.55, 680.506, 621.944
596.044, 555.494, 539.011, 489.978
473.506, 455.033, 456.472, 411.022
388.494, 402, 408.989, 402.989
412.011, 354.022, 339.472, 370.033
354.978, 353.011, 317.989, 315.989
346.022, 312.517, 293.483, 307
311.011, 256.506, 244.011, 220.483
260.506, 243.506, 214.472, 206.517
232.528, 198.978, 168.506, 171.506
140.483, 144.506, 159.989, 167.528
128.989, 134.011, 140.494, 121
118.989, 138.506, 134.506, 179.506
117.978, 108.506, 109, 101.517
103.989, 100.494, 107.506, 114.517
98.4833, 111, 88.5056, 92.5056
96, 89.5056, 96.4944, 93
65, 87, 72, 50.4944
74.0111, 80.9778, 43.0222, 69
66.9889, 82.0111, 61, 45.9889
61, 25.5056, 49, 41.5056
74.9889, 46.5056, 47, 54.5056
40.4833, 61.5167, 42, 46
53, 47.4944, 27.5056, 32.4833
57.5167, 32.4944, 40.5056, 45.4944
38, 32.5056, 51, 19.9889
30, 32.0111, 50, 41
31, 33, 50, 40.9778
37.0222, 33, 42.4944, 17.5056
28, 21, 31, 24
24, 43.4944, 35, 18.5056
24.9889, 41.0111, 26, 24.4944
30, 32.5056, 26.4944, 21.5056
33, 21, 16, 14
10, 20.4944, 14.5056, 16.4944
28, 25, 15.5056, 9.98889
30.5056, 26, 31.5056, 25
29.4944, 22.5056, 28.9889, 26.0111
21, 26, 20.9889, 22.0111
27, 30, 28, 14
19, 8, 8, 11.4944
19.5056, 6, 8.49445, 34.5056
18, 24, 15.4944, 11.5056
14, 14, 30.9889, 27.5056
8.50555, 11, 15.4944, 14.5056
9.98889, 10.0111, 10, 13
13, 14, 11, 13
9, 6, 15, 6
6, 13, 6, 7.98889
10.0111, 15, 7, 13
14, 13.4944, 9.50555, 7
7.49445, 19.4944, 8.01111, 7
4, 10, 6.49445, 3.50555
10.9889, 16.0111, 7, 13
6, 21.4833, 9.51666, 8
14, 5, 12, 4
3, 7, 23, 2
17, 0.000000, 9, 12.9889
11.0111, 11, 7, 8
2, 10, 7.98889, 21.5056
18.5056, 9, 7, 14
7, 5, 2, 7
13, 11, 4.49445, 10.5056
18, 11, 9, 0.000000
4, 9, 8.98889, 16.0111
18, 9, 7, 14
9, 15, 6, 0.000000
9, 7, 10, 14
19, 13, 8.49445, 18.5056
6, 11, 19, 16
4, 2, 2, 11.4944
9.50555, 9, 13, 10
7, 11, 5.49445, 5.50555
0.000000, 10, 5, 8
10, 7.49445, 10.5056, 3
3, 5, 6.49445, 8
9.50555, 11, 4, 5
9.49445, 5.50555, 9.98889, 13.0111
9, 7, 8, 6
7, 3, 5.98889, 9.01111
10, 2, 4.98889, 8.01111
0.000000, 9.98889, 17.5056, 5.50555
13, 2, 11, 8
8, 5, 2, 7.49445
6.50555, 6, 7, 17
4, 10, 13, 28
4, 7, 5, 12
5, 11, 2, 12
9, 8, 10, 20
58, 10.4944, 4.50555, 13
7, 3, 8, 5
16, 3, 10, 2
7, 6, 11, 0.000000
4
*END

*EOF

File: 22102_S(CT)OL_XRD_notAnn.csv
#twotheta, yobs, ycal, bkg, diff
42.0,27.4944,1.0,1.0,1.0
42.04,20.0,1.0,1.0,1.0
42.08,12.0,1.0,1.0,1.0
42.12,16.0,1.0,1.0,1.0
42.16,29.0,1.0,1.0,1.0
42.2,10.0,1.0,1.0,1.0
42.24,17.0,1.0,1.0,1.0
42.28,21.0,1.0,1.0,1.0
42.32,26.0,1.0,1.0,1.0
42.36,27.4944,1.0,1.0,1.0
42.4,11.0,1.0,1.0,1.0
42.44,15.0,1.0,1.0,1.0
42.48,18.0,1.0,1.0,1.0
42.52,34.0,1.0,1.0,1.0
42.56,41.4944,1.0,1.0,1.0
42.6,31.0,1.0,1.0,1.0
42.64,16.0,1.0,1.0,1.0
42.68,13.5056,1.0,1.0,1.0
42.72,25.5056,1.0,1.0,1.0
42.76,22.0,1.0,1.0,1.0
42.8,26.5056,1.0,1.0,1.0
42.84,23.5056,1.0,1.0,1.0
42.88,25.0,1.0,1.0,1.0
42.92,14.0,1.0,1.0,1.0
42.96,25.5056,1.0,1.0,1.0
43.0,20.0,1.0,1.0,1.0
43.04,24.0,1.0,1.0,1.0
43.08,30.0,1.0,1.0,1.0
43.12,27.0111,1.0,1.0,1.0
43.16,25.5056,1.0,1.0,1.0
43.2,32.5056,1.0,1.0,1.0
43.24,21.5056,1.0,1.0,1.0
43.28,24.0111,1.0,1.0,1.0
43.32,30.0,1.0,1.0,1.0
43.36,48.0,1.0,1.0,1.0
43.4,44.4944,1.0,1.0,1.0
43.44,40.4944,1.0,1.0,1.0
43.48,47.5056,1.0,1.0,1.0
43.52,31.0,1.0,1.0,1.0
43.56,60.0,1.0,1.0,1.0
43.6,54.9889,1.0,1.0,1.0
43.64,60.0111,1.0,1.0,1.0
43.68,48.5056,1.0,1.0,1.0
43.72,59.5056,1.0,1.0,1.0
43.76,58.4944,1.0,1.0,1.0
43.8,74.4944,1.0,1.0,1.0
43.84,46.5056,1.0,1.0,1.0
43.88,68.0,1.0,1.0,1.0
43.92,62.0,1.0,1.0,1.0
43.96,67.5056,1.0,1.0,1.0
44.0,71.5056,1.0,1.0,1.0
44.04,62.5167,1.0,1.0,1.0
44.08,65.5056,1.0,1.0,1.0
44.12,91.0111,1.0,1.0,1.0
44.16,98.9889,1.0,1.0,1.0
44.2,85.5056,1.0,1.0,1.0
44.24,126.4833,1.0,1.0,1.0
44.28,172.0,1.0,1.0,1.0
44.32,154.0,1.0,1.0,1.0
44.36,145.9889,1.0,1.0,1.0
44.4,195.0,1.0,1.0,1.0
44.44,182.4833,1.0,1.0,1.0
44.48,200.5056,1.0,1.0,1.0
44.52,266.0111,1.0,1.0,1.0
44.56,222.55,1.0,1.0,1.0
44.6,247.0,1.0,1.0,1.0
44.64,215.5056,1.0,1.0,1.0
44.68,258.9667,1.0,1.0,1.0
44.72,256.0333,1.0,1.0,1.0
44.76,321.0,1.0,1.0,1.0
44.8,300.9778,1.0,1.0,1.0
44.84,370.4944,1.0,1.0,1.0
44.88,380.0222,1.0,1.0,1.0
44.92,350.4722,1.0,1.0,1.0
44.96,326.0222,1.0,1.0,1.0
45.0,333.0222,1.0,1.0,1.0
45.04,287.0,1.0,1.0,1.0
45.08,348.5278,1.0,1.0,1.0
45.12,365.5389,1.0,1.0,1.0
45.16,429.4722,1.0,1.0,1.0
45.2,498.4611,1.0,1.0,1.0
45.24,699.9778,1.0,1.0,1.0
45.28,758.5167,1.0,1.0,1.0
45.32,897.5611,1.0,1.0,1.0
45.36,999.5389,1.0,1.0,1.0
45.4,1006.0,1.0,1.0,1.0
45.44,969.0333,1.0,1.0,1.0
45.48,1059.97,1.0,1.0,1.0
45.52,1054.47,1.0,1.0,1.0
45.56,1056.99,1.0,1.0,1.0
45.6,1121.51,1.0,1.0,1.0
45.64,1204.49,1.0,1.0,1.0
45.68,1302.56,1.0,1.0,1.0
45.72,1608.48,1.0,1.0,1.0
45.76,1954.98,1.0,1.0,1.0
45.8,2314.96,1.0,1.0,1.0
45.84,2934.47,1.0,1.0,1.0
45.88,3416.55,1.0,1.0,1.0
45.92,4188.47,1.0,1.0,1.0
45.96,4740.99,1.0,1.0,1.0
46.0,5173.45,1.0,1.0,1.0
46.04,5599.03,1.0,1.0,1.0
46.08,5516.53,1.0,1.0,1.0
46.12,5286.63,1.0,1.0,1.0
46.16,5238.98,1.0,1.0,1.0
46.2,4871.71,1.0,1.0,1.0
46.24,4329.04,1.0,1.0,1.0
46.28,3722.93,1.0,1.0,1.0
46.32,3227.92,1.0,1.0,1.0
46.36,2835.51,1.0,1.0,1.0
46.4,2423.62,1.0,1.0,1.0
46.44,2024.0,1.0,1.0,1.0
46.48,1671.57,1.0,1.0,1.0
46.52,1570.56,1.0,1.0,1.0
46.56,1281.42,1.0,1.0,1.0
46.6,1072.99,1.0,1.0,1.0
46.64,894.5278,1.0,1.0,1.0
46.68,775.4611,1.0,1.0,1.0
46.72,598.4833,1.0,1.0,1.0
46.76,503.5278,1.0,1.0,1.0
46.8,402.5389,1.0,1.0,1.0
46.84,330.4944,1.0,1.0,1.0
46.88,335.4611,1.0,1.0,1.0
46.92,357.9778,1.0,1.0,1.0
46.96,279.9889,1.0,1.0,1.0
47.0,343.0111,1.0,1.0,1.0
47.04,406.9667,1.0,1.0,1.0
47.08,479.5389,1.0,1.0,1.0
47.12,600.0,1.0,1.0,1.0
47.16,735.5278,1.0,1.0,1.0
47.2,860.9445,1.0,1.0,1.0
47.24,968.0333,1.0,1.0,1.0
47.28,1046.07,1.0,1.0,1.0
47.32,1016.59,1.0,1.0,1.0
47.36,982.4833,1.0,1.0,1.0
47.4,934.4833,1.0,1.0,1.0
47.44,857.9778,1.0,1.0,1.0
47.48,877.5167,1.0,1.0,1.0
47.52,937.4611,1.0,1.0,1.0
47.56,1016.98,1.0,1.0,1.0
47.6,1246.98,1.0,1.0,1.0
47.64,1666.93,1.0,1.0,1.0
47.68,2282.52,1.0,1.0,1.0
47.72,3444.32,1.0,1.0,1.0
47.76,6374.01,1.0,1.0,1.0
47.8,12785.1,1.0,1.0,1.0
47.84,30331.1,1.0,1.0,1.0
47.88,68326.2,1.0,1.0,1.0
47.92,156664,1.0,1.0,1.0
47.96,313333,1.0,1.0,1.0
48.0,504857,1.0,1.0,1.0
48.04,3312740.0,1.0,1.0,1.0
48.08,1145459.375,1.0,1.0,1.0
48.12,109430,1.0,1.0,1.0
48.16,24470.834,1.0,1.0,1.0
48.2,9535.65,1.0,1.0,1.0
48.24,4437.17,1.0,1.0,1.0
48.28,2617.43,1.0,1.0,1.0
48.32,1734.02,1.0,1.0,1.0
48.36,1205.99,1.0,1.0,1.0
48.4,836.0111,1.0,1.0,1.0
48.44,683.5278,1.0,1.0,1.0
48.48,502.5167,1.0,1.0,1.0
48.52,415.5389,1.0,1.0,1.0
48.56,354.4944,1.0,1.0,1.0
48.6,370.9667,1.0,1.0,1.0
48.64,289.0,1.0,1.0,1.0
48.68,259.9778,1.0,1.0,1.0
48.72,284.0111,1.0,1.0,1.0
48.76,278.0111,1.0,1.0,1.0
48.8,221.9778,1.0,1.0,1.0
48.84,189.0111,1.0,1.0,1.0
48.88,141.5056,1.0,1.0,1.0
48.92,159.9778,1.0,1.0,1.0
48.96,169.0,1.0,1.0,1.0
49.0,136.4944,1.0,1.0,1.0
49.04,124.9778,1.0,1.0,1.0
49.08,139.5056,1.0,1.0,1.0
49.12,126.0111,1.0,1.0,1.0
49.16,118.9778,1.0,1.0,1.0
49.2,122.0222,1.0,1.0,1.0
49.24,111.9889,1.0,1.0,1.0
49.28,77.5167,1.0,1.0,1.0
49.32,72.0,1.0,1.0,1.0
49.36,58.5056,1.0,1.0,1.0
49.4,65.4944,1.0,1.0,1.0
49.44,55.0111,1.0,1.0,1.0
49.48,83.9889,1.0,1.0,1.0
49.52,49.4944,1.0,1.0,1.0
49.56,60.0,1.0,1.0,1.0
49.6,47.4944,1.0,1.0,1.0
49.64,35.5056,1.0,1.0,1.0
49.68,42.9889,1.0,1.0,1.0
49.72,30.0,1.0,1.0,1.0
49.76,42.0,1.0,1.0,1.0
49.8,43.4944,1.0,1.0,1.0
49.84,35.0,1.0,1.0,1.0
49.88,26.0111,1.0,1.0,1.0
49.92,32.4944,1.0,1.0,1.0
49.96,34.9889,1.0,1.0,1.0
50.0,36.5167,1.0,1.0,1.0
50.04,25.9889,1.0,1.0,1.0
50.08,36.0111,1.0,1.0,1.0
50.12,26.0,1.0,1.0,1.0
50.16,35.0,1.0,1.0,1.0
50.2,26.0,1.0,1.0,1.0
50.24,36.0,1.0,1.0,1.0
50.28,29.0,1.0,1.0,1.0
50.32,40.0,1.0,1.0,1.0
50.36,15.0,1.0,1.0,1.0
50.4,40.4944,1.0,1.0,1.0
50.44,24.4944,1.0,1.0,1.0
50.48,24.0,1.0,1.0,1.0
50.52,21.0,1.0,1.0,1.0
50.56,19.0,1.0,1.0,1.0
50.6,22.9889,1.0,1.0,1.0
50.64,60.0,1.0,1.0,1.0
50.68,28.5056,1.0,1.0,1.0
50.72,25.5056,1.0,1.0,1.0
50.76,19.0,1.0,1.0,1.0
50.8,25.0,1.0,1.0,1.0
50.84,19.9889,1.0,1.0,1.0
50.88,31.0,1.0,1.0,1.0
50.92,11.0,1.0,1.0,1.0
50.96,26.0,1.0,1.0,1.0
51.0,22.0,1.0,1.0,1.0
51.04,25.0,1.0,1.0,1.0
51.08,25.0,1.0,1.0,1.0
51.12,21.4944,1.0,1.0,1.0
51.16,24.0,1.0,1.0,1.0
51.2,13.4944,1.0,1.0,1.0
51.24,30.5056,1.0,1.0,1.0
51.28,26.0222,1.0,1.0,1.0
51.32,30.0,1.0,1.0,1.0
51.36,20.0,1.0,1.0,1.0
51.4,8.0,1.0,1.0,1.0
51.44,33.5167,1.0,1.0,1.0
51.48,37.0,1.0,1.0,1.0
51.52,17.0,1.0,1.0,1.0
51.56,35.0,1.0,1.0,1.0
51.6,9.5056,1.0,1.0,1.0
51.64,26.0111,1.0,1.0,1.0
51.68,14.5056,1.0,1.0,1.0
51.72,46.0,1.0,1.0,1.0
51.76,32.9889,1.0,1.0,1.0
51.8,23.9889,1.0,1.0,1.0
51.84,33.0,1.0,1.0,1.0
51.88,18.5056,1.0,1.0,1.0
51.92,20.0,1.0,1.0,1.0
51.96,11.4944,1.0,1.0,1.0
52.0,17.0,1.0,1.0,1.0