Folder: Analysis/XRD:XRR/SCO/22133_SCOT

File: 22133_SCOT_XRD_002.csv
#twotheta, yobs, ycal, bkg, diff
42.0,18.0,1.0,1.0,1.0
42.04,9.0,1.0,1.0,1.0
42.08,23.0,1.0,1.0,1.0
42.12,13.0,1.0,1.0,1.0
42.16,6.0,1.0,1.0,1.0
42.2,24.0,1.0,1.0,1.0
42.24,6.4944,1.0,1.0,1.0
42.28,15.0,1.0,1.0,1.0
42.32,7.0,1.0,1.0,1.0
42.36,0.4944,1.0,1.0,1.0
42.4,12.0,1.0,1.0,1.0
42.44,11.0,1.0,1.0,1.0
42.48,3.0,1.0,1.0,1.0
42.52,8.5056,1.0,1.0,1.0
42.56,2.0,1.0,1.0,1.0
42.6,8.9889,1.0,1.0,1.0
42.64,7.0,1.0,1.0,1.0
42.68,20.0,1.0,1.0,1.0
42.72,7.4944,1.0,1.0,1.0
42.76,8.0,1.0,1.0,1.0
42.8,9.0,1.0,1.0,1.0
42.84,13.9889,1.0,1.0,1.0
42.88,17.0111,1.0,1.0,1.0
42.92,27.4944,1.0,1.0,1.0
42.96,8.0,1.0,1.0,1.0
43.0,19.5056,1.0,1.0,1.0
43.04,24.4944,1.0,1.0,1.0
43.08,24.0,1.0,1.0,1.0
43.12,19.0,1.0,1.0,1.0
43.16,22.4944,1.0,1.0,1.0
43.2,29.4944,1.0,1.0,1.0
43.24,15.5056,1.0,1.0,1.0
43.28,22.0,1.0,1.0,1.0
43.32,21.0,1.0,1.0,1.0
43.36,18.0,1.0,1.0,1.0
43.4,17.0,1.0,1.0,1.0
43.44,17.5056,1.0,1.0,1.0
43.48,19.0,1.0,1.0,1.0
43.52,5.0,1.0,1.0,1.0
43.56,16.0,1.0,1.0,1.0
43.6,13.0111,1.0,1.0,1.0
43.64,6.0,1.0,1.0,1.0
43.68,14.0,1.0,1.0,1.0
43.72,17.0,1.0,1.0,1.0
43.76,16.0,1.0,1.0,1.0
43.8,12.0111,1.0,1.0,1.0
43.84,21.0,1.0,1.0,1.0
43.88,22.0,1.0,1.0,1.0
43.92,21.0,1.0,1.0,1.0
43.96,42.5167,1.0,1.0,1.0
44.0,54.5056,1.0,1.0,1.0
44.04,34.0,1.0,1.0,1.0
44.08,34.0,1.0,1.0,1.0
44.12,45.4944,1.0,1.0,1.0
44.16,49.0111,1.0,1.0,1.0
44.2,47.5056,1.0,1.0,1.0
44.24,41.5167,1.0,1.0,1.0
44.28,59.0111,1.0,1.0,1.0
44.32,29.5056,1.0,1.0,1.0
44.36,56.5056,1.0,1.0,1.0
44.4,25.0111,1.0,1.0,1.0
44.44,35.5056,1.0,1.0,1.0
44.48,29.4944,1.0,1.0,1.0
44.52,41.4944,1.0,1.0,1.0
44.56,18.0,1.0,1.0,1.0
44.6,20.5056,1.0,1.0,1.0
44.64,26.0,1.0,1.0,1.0
44.68,28.4944,1.0,1.0,1.0
44.72,20.4944,1.0,1.0,1.0
44.76,38.0,1.0,1.0,1.0
44.8,45.5056,1.0,1.0,1.0
44.84,43.5056,1.0,1.0,1.0
44.88,37.4944,1.0,1.0,1.0
44.92,59.0222,1.0,1.0,1.0
44.96,54.0,1.0,1.0,1.0
45.0,79.4944,1.0,1.0,1.0
45.04,73.0,1.0,1.0,1.0
45.08,92.0,1.0,1.0,1.0
45.12,77.0,1.0,1.0,1.0
45.16,81.4944,1.0,1.0,1.0
45.2,67.0,1.0,1.0,1.0
45.24,102.4944,1.0,1.0,1.0
45.28,99.4944,1.0,1.0,1.0
45.32,101.5056,1.0,1.0,1.0
45.36,88.0,1.0,1.0,1.0
45.4,77.5056,1.0,1.0,1.0
45.44,73.9778,1.0,1.0,1.0
45.48,88.5056,1.0,1.0,1.0
45.52,73.5056,1.0,1.0,1.0
45.56,71.5056,1.0,1.0,1.0
45.6,79.0111,1.0,1.0,1.0
45.64,101.5167,1.0,1.0,1.0
45.68,105.0111,1.0,1.0,1.0
45.72,97.5167,1.0,1.0,1.0
45.76,122.9889,1.0,1.0,1.0
45.8,188.0111,1.0,1.0,1.0
45.84,226.0,1.0,1.0,1.0
45.88,281.9889,1.0,1.0,1.0
45.92,392.4944,1.0,1.0,1.0
45.96,458.9778,1.0,1.0,1.0
46.0,643.0222,1.0,1.0,1.0
46.04,687.0,1.0,1.0,1.0
46.08,896.9667,1.0,1.0,1.0
46.12,1071.99,1.0,1.0,1.0
46.16,1396.46,1.0,1.0,1.0
46.2,1767.51,1.0,1.0,1.0
46.24,2218.96,1.0,1.0,1.0
46.28,2948.46,1.0,1.0,1.0
46.32,3896.94,1.0,1.0,1.0
46.36,6347.228,1.0,1.0,1.0
46.4,27730.2,1.0,1.0,1.0
46.44,167212,1.0,1.0,1.0
46.48,360646,1.0,1.0,1.0
46.52,467043,1.0,1.0,1.0
46.56,7297164.5,1.0,1.0,1.0
46.6,166994,1.0,1.0,1.0
46.64,16415.7,1.0,1.0,1.0
46.68,4872.14,1.0,1.0,1.0
46.72,2043.47,1.0,1.0,1.0
46.76,995.5167,1.0,1.0,1.0
46.8,518.0444,1.0,1.0,1.0
46.84,305.9889,1.0,1.0,1.0
46.88,260.0222,1.0,1.0,1.0
46.92,221.5056,1.0,1.0,1.0
46.96,215.5167,1.0,1.0,1.0
47.0,175.9889,1.0,1.0,1.0
47.04,169.9889,1.0,1.0,1.0
47.08,152.0,1.0,1.0,1.0
47.12,136.4944,1.0,1.0,1.0
47.16,131.0,1.0,1.0,1.0
47.2,130.9667,1.0,1.0,1.0
47.24,130.4944,1.0,1.0,1.0
47.28,99.4833,1.0,1.0,1.0
47.32,113.0,1.0,1.0,1.0
47.36,93.5056,1.0,1.0,1.0
47.4,71.4944,1.0,1.0,1.0
47.44,54.0,1.0,1.0,1.0
47.48,78.4833,1.0,1.0,1.0
47.52,62.0111,1.0,1.0,1.0
47.56,61.4944,1.0,1.0,1.0
47.6,58.0111,1.0,1.0,1.0
47.64,73.0,1.0,1.0,1.0
47.68,61.0,1.0,1.0,1.0
47.72,66.0111,1.0,1.0,1.0
47.76,84.5056,1.0,1.0,1.0
47.8,93.4833,1.0,1.0,1.0
47.84,78.0,1.0,1.0,1.0
47.88,80.9889,1.0,1.0,1.0
47.92,87.0,1.0,1.0,1.0
47.96,103.5167,1.0,1.0,1.0
48.0,94.9778,1.0,1.0,1.0
48.04,94.5056,1.0,1.0,1.0
48.08,87.9889,1.0,1.0,1.0
48.12,93.9889,1.0,1.0,1.0
48.16,117.4944,1.0,1.0,1.0
48.2,86.5056,1.0,1.0,1.0
48.24,90.0,1.0,1.0,1.0
48.28,81.0,1.0,1.0,1.0
48.32,88.5056,1.0,1.0,1.0
48.36,54.0111,1.0,1.0,1.0
48.4,64.9889,1.0,1.0,1.0
48.44,45.5056,1.0,1.0,1.0
48.48,39.0111,1.0,1.0,1.0
48.52,48.4944,1.0,1.0,1.0
48.56,53.5056,1.0,1.0,1.0
48.6,36.5056,1.0,1.0,1.0
48.64,25.0,1.0,1.0,1.0
48.68,17.0,1.0,1.0,1.0
48.72,18.5056,1.0,1.0,1.0
48.76,13.0,1.0,1.0,1.0
48.8,13.5056,1.0,1.0,1.0
48.84,7.0,1.0,1.0,1.0
48.88,8.0,1.0,1.0,1.0
48.92,4.4944,1.0,1.0,1.0
48.96,15.0,1.0,1.0,1.0
49.0,20.4944,1.0,1.0,1.0
49.04,10.4944,1.0,1.0,1.0
49.08,10.4944,1.0,1.0,1.0
49.12,10.5056,1.0,1.0,1.0
49.16,22.0,1.0,1.0,1.0
49.2,11.4944,1.0,1.0,1.0
49.24,12.9889,1.0,1.0,1.0
49.28,11.0,1.0,1.0,1.0
49.32,8.0,1.0,1.0,1.0
49.36,14.5056,1.0,1.0,1.0
49.4,14.0,1.0,1.0,1.0
49.44,7.0111,1.0,1.0,1.0
49.48,13.0,1.0,1.0,1.0
49.52,15.0,1.0,1.0,1.0
49.56,12.0,1.0,1.0,1.0
49.6,6.0,1.0,1.0,1.0
49.64,15.0,1.0,1.0,1.0
49.68,4.0,1.0,1.0,1.0
49.72,7.0,1.0,1.0,1.0
49.76,9.0,1.0,1.0,1.0
49.8,5.0,1.0,1.0,1.0
49.84,5.0,1.0,1.0,1.0
49.88,3.5056,1.0,1.0,1.0
49.92,4.0,1.0,1.0,1.0
49.96,4.0,1.0,1.0,1.0
50.0,2.0,1.0,1.0,1.0
50.04,7.5056,1.0,1.0,1.0
50.08,6.0,1.0,1.0,1.0
50.12,0.0,1.0,1.0,1.0
50.16,11.0,1.0,1.0,1.0
50.2,12.0,1.0,1.0,1.0
50.24,7.0,1.0,1.0,1.0
50.28,2.4944,1.0,1.0,1.0
50.32,6.0,1.0,1.0,1.0
50.36,16.0,1.0,1.0,1.0
50.4,7.0,1.0,1.0,1.0
50.44,7.0,1.0,1.0,1.0
50.48,7.0,1.0,1.0,1.0
50.52,5.0,1.0,1.0,1.0
50.56,4.0,1.0,1.0,1.0
50.6,5.5056,1.0,1.0,1.0
50.64,7.0,1.0,1.0,1.0
50.68,2.4944,1.0,1.0,1.0
50.72,10.0,1.0,1.0,1.0
50.76,8.0,1.0,1.0,1.0
50.8,0.0,1.0,1.0,1.0
50.84,0.0,1.0,1.0,1.0
50.88,7.0,1.0,1.0,1.0
50.92,4.4944,1.0,1.0,1.0
50.96,5.4944,1.0,1.0,1.0
51.0,12.5056,1.0,1.0,1.0
51.04,9.0,1.0,1.0,1.0
51.08,8.0,1.0,1.0,1.0
51.12,2.0,1.0,1.0,1.0
51.16,7.0,1.0,1.0,1.0
51.2,9.0,1.0,1.0,1.0
51.24,11.0,1.0,1.0,1.0
51.28,5.0,1.0,1.0,1.0
51.32,4.0,1.0,1.0,1.0
51.36,3.0,1.0,1.0,1.0
51.4,4.0,1.0,1.0,1.0
51.44,9.5056,1.0,1.0,1.0
51.48,9.0,1.0,1.0,1.0
51.52,12.0,1.0,1.0,1.0
51.56,2.0,1.0,1.0,1.0
51.6,0.0,1.0,1.0,1.0
51.64,12.5056,1.0,1.0,1.0
51.68,7.0,1.0,1.0,1.0
51.72,5.0,1.0,1.0,1.0
51.76,0.0,1.0,1.0,1.0
51.8,0.4944,1.0,1.0,1.0
51.84,2.0,1.0,1.0,1.0
51.88,3.0,1.0,1.0,1.0
51.92,5.0,1.0,1.0,1.0
51.96,4.5056,1.0,1.0,1.0
52.0,4.0,1.0,1.0,1.0

File: 22133_SCOT_XRD_002_2-Theta_Omega.asc
*TYPE		=  Raw
*CLASS		=  ASCII CLASS
*SAMPLE		=
*COMMENT	=
*FNAME		=  22133_SCOT_XRD_002_2-Theta_Omega.asc
*DATE		=  08-Sep-22 00:10

*GROUP_COUNT	=  1
*GONIO		=  SmartLab(In-plane), 0.000000
*ATTACHMENT	=  Z-Phi Stage
*ASC		=  0, 0, 0.000000, 0.000000
*I_MONOCHRO	=  Ge(220)x2, 0.000000
*FILTER		=  None
*C_MONOCHRO	=  None, 0.000000
*SLIT_NAME	=  0, Incident slit
*SLIT_NAME	=  1, Receiving slit # 1
*SLIT_NAME	=  2, Receiving slit # 2
*COUNTER	=  D/teX Ultra 250, 0
*POS_FORMAT	=  0
*SCAN_AXIS	=  2Theta/Omega
*MEAS_MODE	=  Continuous Scanning
*TARGET		=  29
*XRAY_CHAR	=  K-ALPHA1
*WAVE_LENGTH1	=  1.54059
*WAVE_LENGTH2	=  1.54441
*THICKNESS	=  0, 0.000000
*MU		=  0, 0.000000
*SCAN_MODE	=  2Theta/Omega
*SPEED_DIM	=  sec./step
*XUNIT		=  deg.
*YUNIT		=  counts
*SCALE_MODE	=  1
*REP_COUNT	=  0
*SE_COUNT	=  0
*STD_MATERIAL	=  Unknown, Unknown, 0.000000, 0.000000, 0.000000, 0.000000, 0.000000, 0.000000
*LATT_CONS	=  0, Unknown, Unknown, 0.000000, 0.000000, 0.000000, 0.000000, 0.000000, 0.000000
*SEC_COUNT	=  1
*TSPEC_SIZE	=  0
*EXTRA_SIZE	=  0
*MEMO		=

*BEGIN
*GROUP		=  0
*START		=  42
*STOP		=  52
*STEP		=  0.01
*OFFSET		=  -0.071600
*SPEED		=  23.9588
*SLIT_SPEC	=  0, 0.400mm, 0.4, 0.000000
*SLIT_SPEC	=  1, 0.400mm, 0.4, 0.000000
*SLIT_SPEC	=  2, 0.400mm, 0.4, 0.000000
*KV		=  40
*MA		=  30
*LOW		=  0.000000
*HIGH		=  0.000000
*CTEMPER	=  0, 0.000000
*CTEMPER	=  1, 0.000000
*CTEMPER	=  2, 0.000000
*PAREX		=  0, 0.000000
*PAREX		=  1, 0.000000
*PAREX		=  2, 0.000000
*PAREX		=  3, 0.000000
*PAREX		=  4, 0.000000
*PAREX		=  5, 0.000000
*PAREX		=  6, 0.000000
*PAREX		=  7, 0.000000
*PAREX		=  8, 0.000000
*PAREX		=  9, 0.000000
*PAREX		=  10, 0.000000
*PAREX		=  11, 0.000000
*PAREX		=  12, 0.000000
*PAREX		=  13, 0.000000
*PAREX		=  14, 0.000000
*PAREX		=  15, 0.000000
*FULL_SCALE	=  879816
*INDEX		=  0, 0, 0
*COUNT		=  1001
18, 23.5056, 18, 15
9, 9.98889, 13.5056, 22
23, 18.5056, 8, 23.4944
13, 10, 7.50555, 12
6, 12, 6.49445, 12
24, 13, 17.5056, 7
6.49445, 11.5056, 12, 8
15, 10, 11, 16
7, 6.49445, 7.50555, 8
0.494446, 11.5056, 9, 7
12, 5.98889, 4.01111, 6
11, 18.4944, 6.50555, 6
3, 6, 3, 10.4944
8.50555, 8, 8, 13
2, 9, 6, 12
8.98889, 4.50555, 9.50555, 18
7, 7, 8, 7
20, 5, 18.4944, 18.5056
7.49445, 11.5056, 16, 13
8, 13, 10, 17
9, 8.49445, 12.5056, 21
13.9889, 17.5056, 21.5056, 10.9889
17.0111, 8, 24, 17
27.4944, 11.5056, 21, 26
8, 28.4944, 27.4944, 27.5056
19.5056, 32.9889, 21.0111, 24.4944
24.4944, 31.0111, 18, 33
24, 21.4944, 29.9889, 30.5167
19, 31, 15, 17
22.4944, 13.5056, 19, 27
29.4944, 40.5056, 26, 31.4944
15.5056, 16, 17.9889, 21.5056
22, 11.5056, 11.4944, 28.5056
21, 17, 11, 14
18, 16, 15, 12
17, 24, 26.4944, 17
17.5056, 21, 9, 5
19, 8, 17, 23
5, 11, 10, 11
16, 13, 13, 20.9889
13.0111, 14, 10, 24
6, 14, 29, 15
14, 16, 13, 17
17, 16, 15, 16
16, 18, 9, 14.9889
12.0111, 22, 23.4944, 22.5056
21, 32, 12, 16
22, 21.4944, 18.5056, 29.4944
21, 20.5056, 27, 22.4833
42.5167, 40, 32, 46.4944
54.5056, 36.4944, 41.5056, 40.4944
34, 56.4944, 66.0111, 56
34, 53, 45.4944, 37
45.4944, 41.5056, 39, 34.9889
49.0111, 42, 27.5056, 38.9889
47.5056, 33.4944, 37, 44.4944
41.5167, 29, 48, 38.4833
59.0111, 30.5056, 39, 50.4944
29.5056, 29, 41.4944, 32.4944
56.5056, 40.5056, 30, 35.9889
25.0111, 34.9889, 36, 34
35.5056, 20, 35.5056, 36
29.4944, 27.5056, 19, 37
41.4944, 38.5056, 32.4944, 46.5056
18, 27, 12.9889, 18
20.5056, 36, 22.5056, 18
26, 19, 28.9889, 21.0111
28.4944, 43, 34, 25.5056
20.4944, 34, 30, 41
38, 42.5056, 36.9889, 35.5056
45.5056, 49.4944, 39.5056, 38.4944
43.5056, 25, 38, 39
37.4944, 43.5056, 42.4944, 63.4833
59.0222, 48, 47.4944, 63.5056
54, 50, 61.4944, 64.4944
79.4944, 76.5056, 68, 65.0111
73, 90.9889, 44.4944, 80.0111
92, 87, 83.5056, 112.494
77, 81.4833, 85.5167, 77
81.4944, 79.0111, 87, 102
67, 84.4944, 97.9778, 101.022
102.494, 65.5056, 85, 65.5056
99.4944, 94.5056, 90.9889, 76.5056
101.506, 96, 64.9889, 82.0111
88, 108.483, 100.517, 69.9889
77.5056, 73, 61, 67
73.9778, 72.0222, 67.5056, 76.4944
88.5056, 64.9889, 87.5056, 64.4944
73.5056, 68.5056, 66.9889, 79
71.5056, 62, 72.5056, 63.9889
79.0111, 76, 74.9889, 96.4944
101.517, 72.4944, 84.9889, 93.5056
105.011, 94.9889, 112, 113.494
97.5167, 125.483, 142.506, 161.506
122.989, 152.978, 148.033, 146.978
188.011, 183.989, 213.494, 194.506
226, 248, 231.494, 282
281.989, 274.022, 311.494, 347.494
392.494, 352.011, 438.494, 401.517
458.978, 457.989, 506.472, 516.494
643.022, 620.539, 633.406, 643.528
687, 767.528, 834.967, 823.528
896.967, 944.483, 1030.01, 1042.51
1071.99, 1176, 1242.97, 1347.53
1396.46, 1481.98, 1589.01, 1736.53
1767.51, 1857.89, 2016, 2104.53
2218.96, 2475.43, 2502.53, 2819.49
2948.46, 3122.51, 3448.43, 3587.52
3896.94, 4400.47, 4846.41, 5402.09
6347.23, 7512.39, 9717.52, 13880.9
27730.2, 78298.2, 122111, 144514
167212, 200606, 242412, 292042
360646, 453302, 503498, 427805
467043, 604214, 910602, 2027212.6
7297164.5, 16376873, 8313608.5, 713681
166994, 74995.7, 41315.4, 24942.7
16415.7, 11409.3, 8348.41, 6304.14
4872.14, 3773.08, 2968.04, 2491.13
2043.47, 1715.12, 1417.99, 1208.49
995.517, 816.583, 713.978, 605
518.044, 467.506, 445.989, 371.528
305.989, 286.483, 310, 233.472
260.022, 266.022, 236.472, 217.517
221.506, 207.506, 187.494, 165.494
215.517, 166.472, 164.528, 183.989
175.989, 182.517, 182, 169.011
169.989, 197.494, 149.022, 141.483
152, 122.506, 147.494, 140.011
136.494, 149.989, 157.517, 133
131, 163.989, 156, 93.5167
130.967, 123.517, 142.989, 117.528
130.494, 119.483, 110.517, 101
99.4833, 129.517, 115.494, 95
113, 120.506, 88, 122.494
93.5056, 109, 76.4944, 91.0111
71.4944, 92, 74.4944, 76.0111
54, 64.9889, 117.506, 85
78.4833, 99.0111, 66.0111, 71.9889
62.0111, 47, 50.9889, 69.5056
61.4944, 65, 68.4944, 71.5056
58.0111, 65.4944, 66.4944, 69.5056
73, 71.5056, 84.4944, 64.5056
61, 63.4944, 51.5056, 75.4833
66.0111, 58.5056, 75, 49.4944
84.5056, 58, 85, 90.4944
93.4833, 76.5167, 70.4944, 74.5056
78, 69.4944, 103.506, 76.5056
80.9889, 98, 105.483, 75.0222
87, 68, 93, 118.989
103.517, 87.9889, 71.9889, 104.022
94.9778, 100.506, 106.517, 104.989
94.5056, 116.989, 89.0111, 88
87.9889, 79.5056, 96, 70.0111
93.9889, 106, 100.011, 88
117.494, 69.9889, 110, 89.5056
86.5056, 83.4944, 95, 78
90, 71.5056, 85.4944, 71.5056
81, 58, 69.4944, 74.4944
88.5056, 79.0111, 78, 58.9889
54.0111, 58.4944, 50.5056, 56
64.9889, 54.4944, 62.5056, 55
45.5056, 58, 62.9889, 54.5056
39.0111, 41, 33, 40
48.4944, 33, 37.5056, 41.4944
53.5056, 30.4944, 14, 15
36.5056, 32.9889, 29.5056, 20.5056
25, 27, 20, 17
17, 21, 12.4944, 22
18.5056, 16.4944, 18.5056, 29
13, 21, 19.4944, 8
13.5056, 16, 12, 15
7, 16, 13.4944, 17.5056
8, 20.9889, 9, 17.0111
4.49445, 14, 11.5056, 12
15, 10, 17, 3
20.4944, 16, 10.5056, 16
10.4944, 8, 14.5056, 5
10.4944, 25.5056, 17, 16.4944
10.5056, 19, 21.4944, 23.5056
22, 9.98889, 16.0111, 20
11.4944, 15.5056, 25.9889, 19.0111
12.9889, 29.0111, 2, 24
11, 15.4944, 22.5056, 12
8, 10, 13, 20.4944
14.5056, 13, 27.4944, 25
14, 11.5056, 19, 11.9889
7.01111, 4, 9, 5
13, 10, 9, 13
15, 10.4944, 6.50555, 4
12, 15, 11.4944, 11.5056
6, 7, 19.4944, 13.5056
15, 12, 3, 12
4, 16, 6, 3
7, 31.4611, 21.0333, 13.5056
9, 4, 2, 13
5, 8, 10, 11
5, 4, 7, 8.49445
3.50555, 0.000000, 3, 12
4, 2, 9, 5
4, 7, 9, 3
2, 13, 11, 9.49445
7.50555, 11, 2, 9
6, 8, 8, 9
0.000000, 4, 5, 10
11, 19, 2, 7
12, 11, 3, 3
7, 11.4944, 8.50555, 2
2.49445, 10.5056, 12, 4
6, 4.49445, 3.50555, 10
16, 4, 5.49445, 9.50555
7, 10, 7, 8
7, 15, 10, 4
7, 4, 14, 6
5, 4, 5, 10
4, 5, 6, 4.49445
5.50555, 18, 2, 8
7, 8, 2, 4
2.49445, 6.50555, 1, 10
10, 5, 2, 4
8, 7, 7, 12
0.000000, 6, 2, 10
0.000000, 3, 2, 11
7, 0.000000, 0.000000, 4
4.49445, 6.50555, 2.49445, 7.50555
5.49445, 7.50555, 5, 7.49445
12.5056, 11, 5, 5
9, 9, 4.98889, 10.0111
8, 4, 3, 2
2, 16, 9, 11
7, 2, 5, 4
9, 11, 0.000000, 10
11, 2, 7, 12
5, 7, 4, 12
4, 10, 6, 0.000000
3, 13, 9, 7
4, 9, 6, 6.49445
9.50555, 6, 1.49445, 2.50555
9, 6.49445, 0.505554, 0.000000
12, 2, 0.000000, 9
2, 5.49445, 7.50555, 3
0.000000, 2, 7, 11.4944
12.5056, 8.49445, 6.50555, 0.000000
7, 10, 5, 6
5, 0.000000, 2, 4
0.000000, 7, 2, 6
0.494446, 11, 8.50555, 6
2, 10, 8, 0.000000
3, 6, 0.000000, 7
5, 5.49445, 11.5056, 14.4944
4.50555, 2, 2.49445, 2.50555
4
*END

*EOF