Folder: Analysis/XRD:XRR/SCO/22154_SCO(CL)_annealed

File: 22154_SCO(CL)_XRD_annealed.csv
#twotheta, yobs, ycal, bkg, diff
42.0,9.4944,1.0,1.0,1.0
42.04,2.4944,1.0,1.0,1.0
42.08,7.0,1.0,1.0,1.0
42.12,2.0,1.0,1.0,1.0
42.16,11.0,1.0,1.0,1.0
42.2,8.0,1.0,1.0,1.0
42.24,9.0,1.0,1.0,1.0
42.28,8.0,1.0,1.0,1.0
42.32,12.0,1.0,1.0,1.0
42.36,8.0,1.0,1.0,1.0
42.4,7.5056,1.0,1.0,1.0
42.44,4.0,1.0,1.0,1.0
42.48,6.0,1.0,1.0,1.0
42.52,12.0,1.0,1.0,1.0
42.56,12.5056,1.0,1.0,1.0
42.6,5.0,1.0,1.0,1.0
42.64,5.0,1.0,1.0,1.0
42.68,18.4944,1.0,1.0,1.0
42.72,20.0,1.0,1.0,1.0
42.76,4.0,1.0,1.0,1.0
42.8,17.5056,1.0,1.0,1.0
42.84,23.5056,1.0,1.0,1.0
42.88,13.0,1.0,1.0,1.0
42.92,8.0,1.0,1.0,1.0
42.96,11.0,1.0,1.0,1.0
43.0,16.5056,1.0,1.0,1.0
43.04,9.5056,1.0,1.0,1.0
43.08,15.4944,1.0,1.0,1.0
43.12,3.0,1.0,1.0,1.0
43.16,22.0,1.0,1.0,1.0
43.2,6.0,1.0,1.0,1.0
43.24,14.5056,1.0,1.0,1.0
43.28,5.0,1.0,1.0,1.0
43.32,17.0,1.0,1.0,1.0
43.36,6.0111,1.0,1.0,1.0
43.4,6.5056,1.0,1.0,1.0
43.44,14.5056,1.0,1.0,1.0
43.48,12.0,1.0,1.0,1.0
43.52,16.0,1.0,1.0,1.0
43.56,4.0,1.0,1.0,1.0
43.6,4.5056,1.0,1.0,1.0
43.64,8.0,1.0,1.0,1.0
43.68,6.5056,1.0,1.0,1.0
43.72,8.0,1.0,1.0,1.0
43.76,12.0,1.0,1.0,1.0
43.8,2.0,1.0,1.0,1.0
43.84,7.0,1.0,1.0,1.0
43.88,3.5056,1.0,1.0,1.0
43.92,15.0,1.0,1.0,1.0
43.96,7.0,1.0,1.0,1.0
44.0,10.0,1.0,1.0,1.0
44.04,11.0,1.0,1.0,1.0
44.08,9.0,1.0,1.0,1.0
44.12,17.0,1.0,1.0,1.0
44.16,8.0,1.0,1.0,1.0
44.2,3.0,1.0,1.0,1.0
44.24,11.0,1.0,1.0,1.0
44.28,13.0111,1.0,1.0,1.0
44.32,11.4944,1.0,1.0,1.0
44.36,26.0,1.0,1.0,1.0
44.4,20.9889,1.0,1.0,1.0
44.44,37.0,1.0,1.0,1.0
44.48,26.0,1.0,1.0,1.0
44.52,29.5056,1.0,1.0,1.0
44.56,23.0111,1.0,1.0,1.0
44.6,63.0,1.0,1.0,1.0
44.64,44.9889,1.0,1.0,1.0
44.68,55.9889,1.0,1.0,1.0
44.72,61.0,1.0,1.0,1.0
44.76,61.4833,1.0,1.0,1.0
44.8,74.0,1.0,1.0,1.0
44.84,81.0,1.0,1.0,1.0
44.88,92.0,1.0,1.0,1.0
44.92,151.4944,1.0,1.0,1.0
44.96,121.0,1.0,1.0,1.0
45.0,121.4944,1.0,1.0,1.0
45.04,157.9889,1.0,1.0,1.0
45.08,171.0,1.0,1.0,1.0
45.12,214.5167,1.0,1.0,1.0
45.16,193.4722,1.0,1.0,1.0
45.2,229.4722,1.0,1.0,1.0
45.24,239.0111,1.0,1.0,1.0
45.28,263.0111,1.0,1.0,1.0
45.32,277.5056,1.0,1.0,1.0
45.36,306.9556,1.0,1.0,1.0
45.4,344.0,1.0,1.0,1.0
45.44,318.4611,1.0,1.0,1.0
45.48,393.5389,1.0,1.0,1.0
45.52,366.5167,1.0,1.0,1.0
45.56,421.0111,1.0,1.0,1.0
45.6,450.4833,1.0,1.0,1.0
45.64,473.0,1.0,1.0,1.0
45.68,492.0444,1.0,1.0,1.0
45.72,549.9778,1.0,1.0,1.0
45.76,519.5056,1.0,1.0,1.0
45.8,632.5278,1.0,1.0,1.0
45.84,590.5278,1.0,1.0,1.0
45.88,661.9667,1.0,1.0,1.0
45.92,644.4611,1.0,1.0,1.0
45.96,685.5389,1.0,1.0,1.0
46.0,729.0222,1.0,1.0,1.0
46.04,778.0,1.0,1.0,1.0
46.08,730.9889,1.0,1.0,1.0
46.12,865.4833,1.0,1.0,1.0
46.16,855.45,1.0,1.0,1.0
46.2,834.9667,1.0,1.0,1.0
46.24,921.5278,1.0,1.0,1.0
46.28,945.4833,1.0,1.0,1.0
46.32,963.0333,1.0,1.0,1.0
46.36,984.45,1.0,1.0,1.0
46.4,1073.53,1.0,1.0,1.0
46.44,1022.99,1.0,1.0,1.0
46.48,1121.0,1.0,1.0,1.0
46.52,1135.44,1.0,1.0,1.0
46.56,1110.02,1.0,1.0,1.0
46.6,1074.02,1.0,1.0,1.0
46.64,1024.01,1.0,1.0,1.0
46.68,1092.99,1.0,1.0,1.0
46.72,1064.54,1.0,1.0,1.0
46.76,1081.01,1.0,1.0,1.0
46.8,1076.02,1.0,1.0,1.0
46.84,1021.52,1.0,1.0,1.0
46.88,945.9889,1.0,1.0,1.0
46.92,898.5389,1.0,1.0,1.0
46.96,858.0,1.0,1.0,1.0
47.0,733.5167,1.0,1.0,1.0
47.04,657.0222,1.0,1.0,1.0
47.08,718.0333,1.0,1.0,1.0
47.12,556.5389,1.0,1.0,1.0
47.16,532.5056,1.0,1.0,1.0
47.2,557.0111,1.0,1.0,1.0
47.24,653.55,1.0,1.0,1.0
47.28,719.4722,1.0,1.0,1.0
47.32,919.0,1.0,1.0,1.0
47.36,1182.02,1.0,1.0,1.0
47.4,1387.97,1.0,1.0,1.0
47.44,1648.99,1.0,1.0,1.0
47.48,1978.55,1.0,1.0,1.0
47.52,2173.61,1.0,1.0,1.0
47.56,2189.11,1.0,1.0,1.0
47.6,2268.54,1.0,1.0,1.0
47.64,2457.96,1.0,1.0,1.0
47.68,2436.49,1.0,1.0,1.0
47.72,2872.35,1.0,1.0,1.0
47.76,3883.98,1.0,1.0,1.0
47.8,6163.32,1.0,1.0,1.0
47.84,12259.8,1.0,1.0,1.0
47.88,31861.7,1.0,1.0,1.0
47.92,132240,1.0,1.0,1.0
47.96,7720786.5,1.0,1.0,1.0
48.0,8021594.0,1.0,1.0,1.0
48.04,818678.5,1.0,1.0,1.0
48.08,51083.4,1.0,1.0,1.0
48.12,13474.8,1.0,1.0,1.0
48.16,5795.02,1.0,1.0,1.0
48.2,2938.52,1.0,1.0,1.0
48.24,1744.01,1.0,1.0,1.0
48.28,1044.52,1.0,1.0,1.0
48.32,755.9556,1.0,1.0,1.0
48.36,514.5389,1.0,1.0,1.0
48.4,404.4722,1.0,1.0,1.0
48.44,310.5056,1.0,1.0,1.0
48.48,240.9778,1.0,1.0,1.0
48.52,199.5167,1.0,1.0,1.0
48.56,157.5167,1.0,1.0,1.0
48.6,138.9889,1.0,1.0,1.0
48.64,106.4833,1.0,1.0,1.0
48.68,85.4944,1.0,1.0,1.0
48.72,98.5167,1.0,1.0,1.0
48.76,88.0,1.0,1.0,1.0
48.8,50.5056,1.0,1.0,1.0
48.84,53.0111,1.0,1.0,1.0
48.88,56.5056,1.0,1.0,1.0
48.92,31.0,1.0,1.0,1.0
48.96,45.0,1.0,1.0,1.0
49.0,39.0,1.0,1.0,1.0
49.04,31.5056,1.0,1.0,1.0
49.08,31.5056,1.0,1.0,1.0
49.12,27.0,1.0,1.0,1.0
49.16,30.4944,1.0,1.0,1.0
49.2,22.9889,1.0,1.0,1.0
49.24,17.0111,1.0,1.0,1.0
49.28,22.0,1.0,1.0,1.0
49.32,17.0,1.0,1.0,1.0
49.36,15.0,1.0,1.0,1.0
49.4,9.0,1.0,1.0,1.0
49.44,22.4944,1.0,1.0,1.0
49.48,19.5056,1.0,1.0,1.0
49.52,15.0,1.0,1.0,1.0
49.56,22.5056,1.0,1.0,1.0
49.6,27.0,1.0,1.0,1.0
49.64,7.5056,1.0,1.0,1.0
49.68,16.0,1.0,1.0,1.0
49.72,18.0111,1.0,1.0,1.0
49.76,33.4944,1.0,1.0,1.0
49.8,13.5056,1.0,1.0,1.0
49.84,17.0,1.0,1.0,1.0
49.88,4.0,1.0,1.0,1.0
49.92,8.5056,1.0,1.0,1.0
49.96,14.0,1.0,1.0,1.0
50.0,11.0,1.0,1.0,1.0
50.04,4.0,1.0,1.0,1.0
50.08,7.0,1.0,1.0,1.0
50.12,13.0,1.0,1.0,1.0
50.16,12.4944,1.0,1.0,1.0
50.2,12.0,1.0,1.0,1.0
50.24,7.5056,1.0,1.0,1.0
50.28,4.0,1.0,1.0,1.0
50.32,5.0,1.0,1.0,1.0
50.36,12.0,1.0,1.0,1.0
50.4,3.0,1.0,1.0,1.0
50.44,9.4944,1.0,1.0,1.0
50.48,17.0,1.0,1.0,1.0
50.52,13.0,1.0,1.0,1.0
50.56,4.0,1.0,1.0,1.0
50.6,12.0,1.0,1.0,1.0
50.64,15.0,1.0,1.0,1.0
50.68,2.0,1.0,1.0,1.0
50.72,4.0,1.0,1.0,1.0
50.76,2.0,1.0,1.0,1.0
50.8,12.0,1.0,1.0,1.0
50.84,2.0,1.0,1.0,1.0
50.88,6.0,1.0,1.0,1.0
50.92,10.0,1.0,1.0,1.0
50.96,3.0111,1.0,1.0,1.0
51.0,9.0,1.0,1.0,1.0
51.04,3.0,1.0,1.0,1.0
51.08,4.0,1.0,1.0,1.0
51.12,7.0,1.0,1.0,1.0
51.16,2.0,1.0,1.0,1.0
51.2,7.5056,1.0,1.0,1.0
51.24,5.0,1.0,1.0,1.0
51.28,8.0,1.0,1.0,1.0
51.32,8.0,1.0,1.0,1.0
51.36,2.0,1.0,1.0,1.0
51.4,4.0,1.0,1.0,1.0
51.44,5.0,1.0,1.0,1.0
51.48,8.0,1.0,1.0,1.0
51.52,7.4944,1.0,1.0,1.0
51.56,6.0,1.0,1.0,1.0
51.6,6.0,1.0,1.0,1.0
51.64,6.4944,1.0,1.0,1.0
51.68,4.0,1.0,1.0,1.0
51.72,5.0,1.0,1.0,1.0
51.76,0.0,1.0,1.0,1.0
51.8,0.0,1.0,1.0,1.0
51.84,5.4944,1.0,1.0,1.0
51.88,5.0,1.0,1.0,1.0
51.92,8.0,1.0,1.0,1.0
51.96,8.0,1.0,1.0,1.0
52.0,5.0,1.0,1.0,1.0

File: 22154_SCO(CL)_XRD_annealed_2-Theta_Omega.asc
*TYPE		=  Raw
*CLASS		=  ASCII CLASS
*SAMPLE		=
*COMMENT	=
*FNAME		=  22154_SCO(CL)_XRD_annealed_2-Theta_Omega.asc
*DATE		=  26-Oct-22 17:02

*GROUP_COUNT	=  1
*GONIO		=  SmartLab(In-plane), 0.000000
*ATTACHMENT	=  Z-Phi Stage
*ASC		=  0, 0, 0.000000, 0.000000
*I_MONOCHRO	=  Ge(220)x2, 0.000000
*FILTER		=  None
*C_MONOCHRO	=  None, 0.000000
*SLIT_NAME	=  0, Incident slit
*SLIT_NAME	=  1, Receiving slit # 1
*SLIT_NAME	=  2, Receiving slit # 2
*COUNTER	=  D/teX Ultra 250, 0
*POS_FORMAT	=  0
*SCAN_AXIS	=  2Theta/Omega
*MEAS_MODE	=  Continuous Scanning
*TARGET		=  29
*XRAY_CHAR	=  K-ALPHA1
*WAVE_LENGTH1	=  1.54059
*WAVE_LENGTH2	=  1.54441
*THICKNESS	=  0, 0.000000
*MU		=  0, 0.000000
*SCAN_MODE	=  2Theta/Omega
*SPEED_DIM	=  sec./step
*XUNIT		=  deg.
*YUNIT		=  counts
*SCALE_MODE	=  1
*REP_COUNT	=  0
*SE_COUNT	=  0
*STD_MATERIAL	=  Unknown, Unknown, 0.000000, 0.000000, 0.000000, 0.000000, 0.000000, 0.000000
*LATT_CONS	=  0, Unknown, Unknown, 0.000000, 0.000000, 0.000000, 0.000000, 0.000000, 0.000000
*SEC_COUNT	=  1
*TSPEC_SIZE	=  0
*EXTRA_SIZE	=  0
*MEMO		=

*BEGIN
*GROUP		=  0
*START		=  42
*STOP		=  52
*STEP		=  0.01
*OFFSET		=  -0.012500
*SPEED		=  23.9588
*SLIT_SPEC	=  0, 0.400mm, 0.4, 0.000000
*SLIT_SPEC	=  1, 0.400mm, 0.4, 0.000000
*SLIT_SPEC	=  2, 0.400mm, 0.4, 0.000000
*KV		=  40
*MA		=  30
*LOW		=  0.000000
*HIGH		=  0.000000
*CTEMPER	=  0, 0.000000
*CTEMPER	=  1, 0.000000
*CTEMPER	=  2, 0.000000
*PAREX		=  0, 0.000000
*PAREX		=  1, 0.000000
*PAREX		=  2, 0.000000
*PAREX		=  3, 0.000000
*PAREX		=  4, 0.000000
*PAREX		=  5, 0.000000
*PAREX		=  6, 0.000000
*PAREX		=  7, 0.000000
*PAREX		=  8, 0.000000
*PAREX		=  9, 0.000000
*PAREX		=  10, 0.000000
*PAREX		=  11, 0.000000
*PAREX		=  12, 0.000000
*PAREX		=  13, 0.000000
*PAREX		=  14, 0.000000
*PAREX		=  15, 0.000000
*FULL_SCALE	=  609548
*INDEX		=  0, 0, 0
*COUNT		=  1001
9.49445, 8, 4.49445, 7.01111
2.49445, 5.50555, 8, 8
7, 5, 9.49445, 10.5056
2, 5, 6, 2
11, 9, 8, 8
8, 15, 5, 9
9, 12.4944, 5.50555, 3
8, 5, 10, 13
12, 6, 11, 4
8, 13, 6, 9.49445
7.50555, 3, 4, 5
4, 10, 5.49445, 13.5056
6, 11.4944, 9, 4.50555
12, 11.4944, 8.50555, 8.49445
12.5056, 5, 3, 4
5, 10, 5, 5
5, 8, 12, 8
18.4944, 2.50555, 8, 9
20, 2, 8.98889, 14.0111
4, 9.49445, 3.50555, 4.49445
17.5056, 6, 2, 7.49445
23.5056, 7, 4, 14
13, 9, 11.4944, 16.5056
8, 16.4944, 11, 18.5056
11, 10, 15, 16.4944
16.5056, 4, 14.4944, 11
9.50555, 5, 18, 9
15.4944, 5.50555, 26, 5
3, 15, 12, 13
22, 20, 15.4944, 11.5056
6, 17, 5, 12.4944
14.5056, 12, 9, 20
5, 7.49445, 12.5056, 14
17, 10.4944, 12.5056, 17.9889
6.01111, 4, 12, 10.4944
6.50555, 8, 6, 6.49445
14.5056, 10, 11, 4
12, 19, 14, 13
16, 15, 2, 10
4, 14, 14.4944, 2.49445
4.50555, 23.5056, 6, 10
8, 9.48334, 17.5167, 7.49445
6.50555, 17, 14, 5
8, 13, 14, 0.000000
12, 9, 11, 10
2, 10.4944, 8.50555, 12
7, 13, 13.4944, 7
3.50555, 12, 5, 10
15, 6, 23, 6
7, 5, 5, 6
10, 12.4944, 12.5056, 6
11, 11, 4, 2
9, 9, 9, 10
17, 15, 6, 8
8, 14.4944, 19, 14.5056
3, 2, 2, 8
11, 9.49445, 14.5056, 11.9889
13.0111, 7, 5, 11
11.4944, 14.5056, 15.4944, 14.5056
26, 21, 21.4944, 22.5056
20.9889, 24.5056, 27.5056, 21
37, 28, 21, 20
26, 25, 29, 40.4944
29.5056, 24.4944, 24.5056, 50.9889
23.0111, 28.9889, 29.0111, 36
63, 44.4944, 39.5056, 38
44.9889, 36, 51, 34.0111
55.9889, 46.9889, 39.0111, 59.0111
61, 55, 39.4944, 73.5056
61.4833, 57.5056, 56.4944, 59.5167
74, 82.4944, 85.5056, 71
81, 86.4833, 113.011, 100.506
92, 102.978, 118.011, 97.5056
151.494, 106.506, 114.483, 140.506
121, 122, 140.011, 147.494
121.494, 134.989, 150.022, 168.494
157.989, 135, 162.472, 165.539
171, 177.978, 177, 178.506
214.517, 190.989, 200.506, 176
193.472, 220.011, 222.011, 189.011
229.472, 237.517, 171.978, 255.011
239.011, 254.967, 224.539, 231.989
263.011, 277, 276.967, 278.022
277.506, 289.967, 306.022, 302.528
306.956, 257.022, 299, 334
344, 348.978, 354.022, 301.011
318.461, 385, 396.517, 371.967
393.539, 400, 394.517, 392.472
366.517, 409, 410.461, 420.022
421.011, 429, 422.944, 454.561
450.483, 458.539, 470.944, 482.506
473, 464.483, 489.528, 548.483
492.044, 534.461, 536.033, 519.956
549.978, 546.539, 520.978, 511.011
519.506, 601.978, 531.011, 611.472
632.528, 623.528, 581.989, 639.967
590.528, 657.494, 644.483, 659.044
661.967, 656.011, 677.461, 684.55
644.461, 691.022, 622.483, 721.956
685.539, 762.978, 774.483, 760.483
729.022, 733.517, 760.989, 787.517
778, 807.506, 763.517, 782.989
730.989, 804.517, 834.472, 851
865.483, 869.494, 854, 867.539
855.45, 881.528, 881.022, 852.011
834.967, 922.044, 862.956, 924.989
921.528, 859.528, 852.461, 874
945.483, 968.033, 943.033, 897.417
963.033, 1021.54, 949.922, 1050.54
984.45, 1003.55, 970.461, 1026.52
1073.53, 1052.47, 997.011, 1043
1022.99, 987.528, 1084.04, 1007.96
1121, 1090, 1127.98, 1074.01
1135.44, 1065.1, 1054.97, 1106.46
1110.02, 1036.43, 1149.03, 1179.06
1074.02, 1093.98, 1151.41, 1086.09
1024.01, 1120.46, 1057.52, 1069.51
1092.99, 1121.49, 1110.02, 1129.46
1064.54, 1175.48, 1150.49, 1171.99
1081.01, 1089.02, 1128.98, 1123.48
1076.02, 1107.04, 1046.87, 1083.61
1021.52, 993.956, 1002.56, 896.989
945.989, 950.011, 989.967, 961
898.539, 843.978, 889, 891.494
858, 784.022, 811.011, 812.45
733.517, 737.561, 722.472, 727.461
657.022, 628.022, 656, 637.989
718.033, 598.494, 584, 570.989
556.539, 544.494, 563, 532.989
532.506, 517.989, 581.472, 586.517
557.011, 612.472, 593.506, 607.472
653.55, 671.494, 637.45, 687.55
719.472, 798.494, 801.978, 904.011
919, 1009.48, 1021.47, 1036.49
1182.02, 1178.51, 1252.51, 1341.98
1387.97, 1574.99, 1560.99, 1683.02
1648.99, 1755.96, 1856.04, 1945.41
1978.55, 1899, 2166.48, 2085.45
2173.61, 2111.47, 2232.91, 2292.54
2189.11, 2305.42, 2271.99, 2314.97
2268.54, 2336.02, 2368.46, 2281.47
2457.96, 2491.04, 2405.02, 2450.99
2436.49, 2593.51, 2658.88, 2744.14
2872.35, 3024.59, 3217.89, 3648.51
3883.98, 4207.91, 4892.06, 5417.38
6163.32, 7041.89, 8392.88, 9984.16
12259.8, 15103.8, 19166.1, 24639.4
31861.7, 42764.9, 58530.5, 84309
132240, 266409, 702207, 2556214.8
7720786.5, 11466204, 11535427, 10347183
8021594, 6242135.5, 4102875.8, 2355366
818679, 236586, 151193, 88179.3
51083.4, 33121.2, 23400.6, 17546.6
13474.8, 10744.3, 8611.53, 7045.34
5795.02, 4724.11, 4011.66, 3403.43
2938.52, 2538.57, 2284.11, 1985.01
1744.01, 1480.51, 1375.06, 1234.45
1044.52, 1005.03, 896.517, 838.044
755.956, 711.506, 620.494, 595.989
514.539, 512.506, 457.483, 450.033
404.472, 354.033, 330.989, 302.494
310.506, 299, 300.506, 251.011
240.978, 223.033, 213.494, 210.494
199.517, 184, 164.483, 165.989
157.517, 146.517, 153, 152.494
138.989, 146.517, 114.989, 130.506
106.483, 117.517, 105, 107
85.4944, 95.0111, 92.9889, 84.9889
98.5167, 96.9889, 77.0111, 72.4944
88, 61.5056, 59, 58
50.5056, 56.4944, 45, 69.4944
53.0111, 62, 57, 59.4833
56.5056, 50.0111, 51, 28
31, 42.4944, 37.5056, 49.4944
45, 40.9889, 41.5167, 39
39, 15, 35, 37.9889
31.5056, 38.5056, 42, 27.4944
31.5056, 28, 26.4944, 40.5056
27, 17, 25.4944, 19
30.4944, 18.0111, 29, 24
22.9889, 29.0111, 14, 29.9889
17.0111, 22, 26.9889, 18.0111
22, 17, 18, 29
17, 16, 14, 9
15, 14.4944, 13.5056, 10
9, 16, 16.4944, 18
22.4944, 4.01111, 9, 8.49445
19.5056, 20, 7, 14
15, 4, 15, 10.4944
22.5056, 18, 16, 15
27, 13, 23, 19.4944
7.50555, 7, 11.4944, 16.5056
16, 13, 13, 22.9889
18.0111, 14.4944, 14, 11
33.4944, 8.01111, 10, 14.4944
13.5056, 5.49445, 17.5056, 17
17, 8, 8, 12
4, 8, 6, 12.4944
8.50555, 11.9889, 16.0111, 12
14, 15, 5, 10.4944
11, 9.50555, 5.49445, 15.5056
4, 12, 11, 9
7, 7, 15.4944, 3.50555
13, 10, 13, 23
12.4944, 13.5056, 12, 0.000000
12, 5, 12, 6.49445
7.50555, 7, 5.49445, 5.50555
4, 11, 6, 5
5, 4, 11, 6
12, 4, 3.49445, 16.5056
3, 13, 14.9889, 14.0111
9.49445, 3.50555, 5, 4
17, 6.49445, 7.50555, 10
13, 10, 17, 1
4, 6, 8, 4
12, 6, 6, 10
15, 6, 4.49445, 13
2, 11.5056, 13, 10
4, 8, 12, 4
2, 15.9889, 12.0111, 8
12, 5.49445, 7.50555, 10
2, 6.49445, 14.5056, 9
6, 5, 4, 2
10, 10, 0.000000, 5.98889
3.01111, 2, 10, 8
9, 12, 12, 4
3, 3, 13.4944, 4.50555
4, 12, 7, 13
7, 10.9889, 3.01111, 4
2, 0.000000, 12, 4.49445
7.50555, 5, 9, 9
5, 5, 3, 6
8, 9, 3, 2
8, 16, 5, 9
2, 4, 4, 9.49445
4, 3.50555, 6, 12
5, 9, 5, 8
8, 2, 4.49445, 1.50555
7.49445, 9.50555, 4, 13
6, 5, 6, 13
6, 7, 9, 4
6.49445, 9, 8.50555, 0.000000
4, 9, 7, 3
5, 3, 7.49445, 13.5056
0.000000, 9, 4, 11
0.000000, 6, 4, 3
5.49445, 12.4944, 3, 5.01111
5, 1, 10, 9
8, 2, 5.49445, 7.50555
8, 3, 2, 0.000000
5
*END

*EOF