Folder: Analysis/XRD:XRR/SCO/22153_SCO(CL)

File: 22153_SCO(CL)_XRD.csv
#twotheta, yobs, ycal, bkg, diff
42.0,7.0,1.0,1.0,1.0
42.05,11.4944,1.0,1.0,1.0
42.1,8.0,1.0,1.0,1.0
42.15,13.0,1.0,1.0,1.0
42.2,0.0,1.0,1.0,1.0
42.25,3.5056,1.0,1.0,1.0
42.3,4.0,1.0,1.0,1.0
42.35,2.0,1.0,1.0,1.0
42.4,10.0,1.0,1.0,1.0
42.45,11.0,1.0,1.0,1.0
42.5,7.5056,1.0,1.0,1.0
42.55,0.0,1.0,1.0,1.0
42.6,9.0,1.0,1.0,1.0
42.65,9.0,1.0,1.0,1.0
42.7,5.4944,1.0,1.0,1.0
42.75,11.0,1.0,1.0,1.0
42.8,7.4944,1.0,1.0,1.0
42.85,11.0,1.0,1.0,1.0
42.9,14.0,1.0,1.0,1.0
42.95,12.0,1.0,1.0,1.0
43.0,13.5056,1.0,1.0,1.0
43.05,15.0,1.0,1.0,1.0
43.1,15.4944,1.0,1.0,1.0
43.15,23.5056,1.0,1.0,1.0
43.2,17.0,1.0,1.0,1.0
43.25,14.4944,1.0,1.0,1.0
43.3,16.5056,1.0,1.0,1.0
43.35,21.9889,1.0,1.0,1.0
43.4,10.0,1.0,1.0,1.0
43.45,7.0,1.0,1.0,1.0
43.5,10.0,1.0,1.0,1.0
43.55,16.0,1.0,1.0,1.0
43.6,9.0,1.0,1.0,1.0
43.65,25.4944,1.0,1.0,1.0
43.7,6.0,1.0,1.0,1.0
43.75,11.0,1.0,1.0,1.0
43.8,20.5056,1.0,1.0,1.0
43.85,3.0,1.0,1.0,1.0
43.9,2.0,1.0,1.0,1.0
43.95,10.0,1.0,1.0,1.0
44.0,15.0,1.0,1.0,1.0
44.05,12.0,1.0,1.0,1.0
44.1,25.0,1.0,1.0,1.0
44.15,18.0,1.0,1.0,1.0
44.2,24.0,1.0,1.0,1.0
44.25,36.5056,1.0,1.0,1.0
44.3,32.0,1.0,1.0,1.0
44.35,59.0222,1.0,1.0,1.0
44.4,50.5056,1.0,1.0,1.0
44.45,75.0,1.0,1.0,1.0
44.5,67.0,1.0,1.0,1.0
44.55,91.0111,1.0,1.0,1.0
44.6,86.4944,1.0,1.0,1.0
44.65,84.0,1.0,1.0,1.0
44.7,73.0,1.0,1.0,1.0
44.75,68.5056,1.0,1.0,1.0
44.8,66.0,1.0,1.0,1.0
44.85,68.9889,1.0,1.0,1.0
44.9,101.5056,1.0,1.0,1.0
44.95,98.5167,1.0,1.0,1.0
45.0,167.5167,1.0,1.0,1.0
45.05,226.4944,1.0,1.0,1.0
45.1,362.4722,1.0,1.0,1.0
45.15,609.0333,1.0,1.0,1.0
45.2,854.0222,1.0,1.0,1.0
45.25,1111.55,1.0,1.0,1.0
45.3,1426.01,1.0,1.0,1.0
45.35,1774.51,1.0,1.0,1.0
45.4,2059.43,1.0,1.0,1.0
45.45,2339.94,1.0,1.0,1.0
45.5,2418.34,1.0,1.0,1.0
45.55,2515.46,1.0,1.0,1.0
45.6,2444.48,1.0,1.0,1.0
45.65,2403.64,1.0,1.0,1.0
45.7,2279.42,1.0,1.0,1.0
45.75,2012.54,1.0,1.0,1.0
45.8,1961.03,1.0,1.0,1.0
45.85,1934.89,1.0,1.0,1.0
45.9,1737.93,1.0,1.0,1.0
45.95,1657.46,1.0,1.0,1.0
46.0,1674.49,1.0,1.0,1.0
46.05,1648.44,1.0,1.0,1.0
46.1,1605.0,1.0,1.0,1.0
46.15,1620.97,1.0,1.0,1.0
46.2,1542.56,1.0,1.0,1.0
46.25,1362.07,1.0,1.0,1.0
46.3,1394.01,1.0,1.0,1.0
46.35,1278.48,1.0,1.0,1.0
46.4,1178.98,1.0,1.0,1.0
46.45,1119.56,1.0,1.0,1.0
46.5,1014.01,1.0,1.0,1.0
46.55,933.0778,1.0,1.0,1.0
46.6,923.0555,1.0,1.0,1.0
46.65,790.4611,1.0,1.0,1.0
46.7,683.4611,1.0,1.0,1.0
46.75,630.4944,1.0,1.0,1.0
46.8,523.9889,1.0,1.0,1.0
46.85,528.4944,1.0,1.0,1.0
46.9,407.9778,1.0,1.0,1.0
46.95,552.0111,1.0,1.0,1.0
47.0,359.5056,1.0,1.0,1.0
47.05,347.0,1.0,1.0,1.0
47.1,301.9889,1.0,1.0,1.0
47.15,304.4833,1.0,1.0,1.0
47.2,307.4833,1.0,1.0,1.0
47.25,290.9889,1.0,1.0,1.0
47.3,289.5167,1.0,1.0,1.0
47.35,395.5167,1.0,1.0,1.0
47.4,449.4944,1.0,1.0,1.0
47.45,491.5056,1.0,1.0,1.0
47.5,580.4722,1.0,1.0,1.0
47.55,783.4611,1.0,1.0,1.0
47.6,1067.48,1.0,1.0,1.0
47.65,1449.47,1.0,1.0,1.0
47.7,1914.97,1.0,1.0,1.0
47.75,2851.89,1.0,1.0,1.0
47.8,5115.99,1.0,1.0,1.0
47.85,13555,1.0,1.0,1.0
47.9,641694,1.0,1.0,1.0
47.95,2661568.0,1.0,1.0,1.0
48.0,3193265.0,1.0,1.0,1.0
48.05,1222428.125,1.0,1.0,1.0
48.1,27236.3,1.0,1.0,1.0
48.15,5323.06,1.0,1.0,1.0
48.2,2331.09,1.0,1.0,1.0
48.25,1280.56,1.0,1.0,1.0
48.3,758.0222,1.0,1.0,1.0
48.35,562.9889,1.0,1.0,1.0
48.4,418.9889,1.0,1.0,1.0
48.45,324.5167,1.0,1.0,1.0
48.5,270.0222,1.0,1.0,1.0
48.55,197.0,1.0,1.0,1.0
48.6,177.4833,1.0,1.0,1.0
48.65,123.5056,1.0,1.0,1.0
48.7,134.4944,1.0,1.0,1.0
48.75,138.9889,1.0,1.0,1.0
48.8,86.5056,1.0,1.0,1.0
48.85,79.4944,1.0,1.0,1.0
48.9,73.5056,1.0,1.0,1.0
48.95,58.5056,1.0,1.0,1.0
49.0,49.0,1.0,1.0,1.0
49.05,42.0,1.0,1.0,1.0
49.1,44.9889,1.0,1.0,1.0
49.15,30.4944,1.0,1.0,1.0
49.2,35.5056,1.0,1.0,1.0
49.25,19.4944,1.0,1.0,1.0
49.3,25.0,1.0,1.0,1.0
49.35,19.0,1.0,1.0,1.0
49.4,6.0,1.0,1.0,1.0
49.45,13.0,1.0,1.0,1.0
49.5,17.5056,1.0,1.0,1.0
49.55,17.4944,1.0,1.0,1.0
49.6,15.0,1.0,1.0,1.0
49.65,11.0,1.0,1.0,1.0
49.7,16.0,1.0,1.0,1.0
49.75,17.0,1.0,1.0,1.0
49.8,12.0,1.0,1.0,1.0
49.85,14.0,1.0,1.0,1.0
49.9,22.5056,1.0,1.0,1.0
49.95,19.5056,1.0,1.0,1.0
50.0,13.0,1.0,1.0,1.0
50.05,17.0,1.0,1.0,1.0
50.1,19.0,1.0,1.0,1.0
50.15,9.0,1.0,1.0,1.0
50.2,17.5056,1.0,1.0,1.0
50.25,6.4944,1.0,1.0,1.0
50.3,6.0,1.0,1.0,1.0
50.35,8.0,1.0,1.0,1.0
50.4,9.4944,1.0,1.0,1.0
50.45,4.0,1.0,1.0,1.0
50.5,11.0,1.0,1.0,1.0
50.55,4.5056,1.0,1.0,1.0
50.6,0.0,1.0,1.0,1.0
50.65,5.0,1.0,1.0,1.0
50.7,5.0,1.0,1.0,1.0
50.75,8.0,1.0,1.0,1.0
50.8,7.0,1.0,1.0,1.0
50.85,6.0,1.0,1.0,1.0
50.9,4.0,1.0,1.0,1.0
50.95,5.0,1.0,1.0,1.0
51.0,2.0,1.0,1.0,1.0
51.05,6.0,1.0,1.0,1.0
51.1,2.0,1.0,1.0,1.0
51.15,0.4944,1.0,1.0,1.0
51.2,2.0,1.0,1.0,1.0
51.25,2.0,1.0,1.0,1.0
51.3,11.0,1.0,1.0,1.0
51.35,11.5056,1.0,1.0,1.0
51.4,10.0,1.0,1.0,1.0
51.45,10.0,1.0,1.0,1.0
51.5,7.0,1.0,1.0,1.0
51.55,5.0,1.0,1.0,1.0
51.6,3.0,1.0,1.0,1.0
51.65,15.0,1.0,1.0,1.0
51.7,10.0,1.0,1.0,1.0
51.75,6.0,1.0,1.0,1.0
51.8,2.0,1.0,1.0,1.0
51.85,17.0,1.0,1.0,1.0
51.9,7.0,1.0,1.0,1.0
51.95,2.0,1.0,1.0,1.0
52.0,8.0,1.0,1.0,1.0
0.44,380158.5,1.0,1.0,1.0
0.49,435546.0,1.0,1.0,1.0
0.54,478026.5,1.0,1.0,1.0
0.59,498245.5,1.0,1.0,1.0
0.64,485008.5,1.0,1.0,1.0
0.69,411157,1.0,1.0,1.0
0.74,249645,1.0,1.0,1.0
0.79,90416,1.0,1.0,1.0
0.84,72278.5,1.0,1.0,1.0
0.89,73913.5,1.0,1.0,1.0
0.94,52173.5,1.0,1.0,1.0
0.99,27616.5,1.0,1.0,1.0
1.04,12127.501,1.0,1.0,1.0
1.09,7401,1.0,1.0,1.0
1.14,9273.999,1.0,1.0,1.0
1.19,12103.0,1.0,1.0,1.0
1.24,12607.499,1.0,1.0,1.0
1.29,10204.499,1.0,1.0,1.0
1.34,7107.001,1.0,1.0,1.0
1.39,4244,1.0,1.0,1.0
1.44,2572.0,1.0,1.0,1.0
1.49,2101.5,1.0,1.0,1.0
1.54,2304.5,1.0,1.0,1.0
1.59,2603.5,1.0,1.0,1.0
1.64,2742,1.0,1.0,1.0
1.69,2631.5,1.0,1.0,1.0
1.74,2395,1.0,1.0,1.0
1.79,1922.5,1.0,1.0,1.0
1.84,1564.0,1.0,1.0,1.0
1.89,1259,1.0,1.0,1.0
1.94,998.5002,1.0,1.0,1.0
1.99,858.4999,1.0,1.0,1.0
2.04,885.4998,1.0,1.0,1.0
2.09,963.5002,1.0,1.0,1.0
2.14,1051.5,1.0,1.0,1.0
2.19,1183,1.0,1.0,1.0
2.24,1143,1.0,1.0,1.0
2.29,1064,1.0,1.0,1.0
2.34,929.4996,1.0,1.0,1.0
2.39,715.5002,1.0,1.0,1.0
2.44,574.0,1.0,1.0,1.0
2.49,565.0,1.0,1.0,1.0
2.54,606.0001,1.0,1.0,1.0
2.59,699.0,1.0,1.0,1.0
2.64,717.5002,1.0,1.0,1.0
2.69,792.9998,1.0,1.0,1.0
2.74,740.4998,1.0,1.0,1.0
2.79,644.5002,1.0,1.0,1.0
2.84,569.0,1.0,1.0,1.0
2.89,518.5002,1.0,1.0,1.0
2.94,412.5004,1.0,1.0,1.0
2.99,475.5001,1.0,1.0,1.0
3.04,479.4998,1.0,1.0,1.0
3.09,485.4998,1.0,1.0,1.0
3.14,481.5002,1.0,1.0,1.0
3.19,503.0002,1.0,1.0,1.0
3.24,492.9999,1.0,1.0,1.0
3.29,465.5006,1.0,1.0,1.0
3.34,431.9998,1.0,1.0,1.0
3.39,408.5001,1.0,1.0,1.0
3.44,454.9997,1.0,1.0,1.0
3.49,430.9999,1.0,1.0,1.0
3.54,431.0001,1.0,1.0,1.0
3.59,370.5002,1.0,1.0,1.0
3.64,459.4998,1.0,1.0,1.0
3.69,436.4998,1.0,1.0,1.0
3.74,452.0,1.0,1.0,1.0
3.79,462.0003,1.0,1.0,1.0
3.84,450.0001,1.0,1.0,1.0
3.89,421.9997,1.0,1.0,1.0
3.94,380.9999,1.0,1.0,1.0
3.99,404.5001,1.0,1.0,1.0
4.04,379.4996,1.0,1.0,1.0
4.09,444.0003,1.0,1.0,1.0
4.14,443.5003,1.0,1.0,1.0
4.19,433.5006,1.0,1.0,1.0
4.24,383.0,1.0,1.0,1.0
4.29,429.4999,1.0,1.0,1.0
4.34,374.4998,1.0,1.0,1.0
4.39,393.0001,1.0,1.0,1.0
4.44,408.5002,1.0,1.0,1.0
4.49,386.9995,1.0,1.0,1.0
4.5,408.5004,1.0,1.0,1.0

File: 22153_SCO(CL)_XRD_2-Theta_Omega.asc
*TYPE		=  Raw
*CLASS		=  ASCII CLASS
*SAMPLE		=
*COMMENT	=
*FNAME		=  22153_SCO(CL)_XRD_2-Theta_Omega.asc
*DATE		=  19-Oct-22 02:39

*GROUP_COUNT	=  1
*GONIO		=  SmartLab(In-plane), 0.000000
*ATTACHMENT	=  Z-Phi Stage
*ASC		=  0, 0, 0.000000, 0.000000
*I_MONOCHRO	=  Ge(220)x2, 0.000000
*FILTER		=  None
*C_MONOCHRO	=  None, 0.000000
*SLIT_NAME	=  0, Incident slit
*SLIT_NAME	=  1, Receiving slit # 1
*SLIT_NAME	=  2, Receiving slit # 2
*COUNTER	=  D/teX Ultra 250, 0
*POS_FORMAT	=  0
*SCAN_AXIS	=  2Theta/Omega
*MEAS_MODE	=  Continuous Scanning
*TARGET		=  29
*XRAY_CHAR	=  K-ALPHA1
*WAVE_LENGTH1	=  1.54059
*WAVE_LENGTH2	=  1.54441
*THICKNESS	=  0, 0.000000
*MU		=  0, 0.000000
*SCAN_MODE	=  2Theta/Omega
*SPEED_DIM	=  sec./step
*XUNIT		=  deg.
*YUNIT		=  counts
*SCALE_MODE	=  1
*REP_COUNT	=  0
*SE_COUNT	=  0
*STD_MATERIAL	=  Unknown, Unknown, 0.000000, 0.000000, 0.000000, 0.000000, 0.000000, 0.000000
*LATT_CONS	=  0, Unknown, Unknown, 0.000000, 0.000000, 0.000000, 0.000000, 0.000000, 0.000000
*SEC_COUNT	=  2
*TSPEC_SIZE	=  0
*EXTRA_SIZE	=  0
*MEMO		=

*BEGIN
*GROUP		=  0
*START		=  42
*STOP		=  52
*STEP		=  0.01
*OFFSET		=  -0.088500
*SPEED		=  22.1803
*SLIT_SPEC	=  0, 0.400mm, 0.4, 0.000000
*SLIT_SPEC	=  1, 0.400mm, 0.4, 0.000000
*SLIT_SPEC	=  2, 0.400mm, 0.4, 0.000000
*KV		=  40
*MA		=  30
*LOW		=  0.000000
*HIGH		=  0.000000
*CTEMPER	=  0, 0.000000
*CTEMPER	=  1, 0.000000
*CTEMPER	=  2, 0.000000
*PAREX		=  0, 0.000000
*PAREX		=  1, 0.000000
*PAREX		=  2, 0.000000
*PAREX		=  3, 0.000000
*PAREX		=  4, 0.000000
*PAREX		=  5, 0.000000
*PAREX		=  6, 0.000000
*PAREX		=  7, 0.000000
*PAREX		=  8, 0.000000
*PAREX		=  9, 0.000000
*PAREX		=  10, 0.000000
*PAREX		=  11, 0.000000
*PAREX		=  12, 0.000000
*PAREX		=  13, 0.000000
*PAREX		=  14, 0.000000
*PAREX		=  15, 0.000000
*FULL_SCALE	=  188556
*INDEX		=  0, 0, 0
*COUNT		=  1001
7, 4, 7, 8
14, 11.4944, 6.50555, 9
8, 6, 8, 6
11, 13, 11, 13
7, 13, 12, 5
0.000000, 16, 11, 13
12.4944, 3.50555, 4, 8.49445
9.50555, 5, 4, 5
5, 4, 4, 2
16, 8, 7.49445, 3.50555
10, 7, 10, 6
3, 11, 5.49445, 8.50555
5, 8.49445, 7.50555, 13
6, 17, 12, 0.000000
2.49445, 7.50555, 4, 4
9, 8.49445, 5.50555, 13
11, 9, 6, 5
9, 14, 5.49445, 2.50555
7, 4, 12, 11
12.4944, 15.5056, 0.000000, 8
7.49445, 11.5056, 17.4944, 12.5056
7, 11, 12.9889, 18.0111
15, 9, 14, 12
6, 15, 0.000000, 12
14, 6, 14.4944, 18
13.5056, 18, 15, 12
11, 15, 6, 9
13.9889, 15.0111, 15.4944, 15.5056
19, 5, 16.4944, 23.5056
0.000000, 17, 23, 7
17, 9, 16, 12
11, 14.4944, 10.5056, 18
20, 26.4944, 16.5056, 17
15, 13, 16, 21.9889
8.01111, 7, 9, 12
10, 16, 16, 22
12, 7, 19.9889, 11.5056
11.5056, 9, 10, 13.9889
15.0111, 13, 5, 16
14, 10, 12, 9
9, 13, 12, 16
21, 25.4944, 20.5056, 20
11, 13, 6, 8
12, 18.4944, 18.5056, 11
10, 12, 14, 20.4944
20.5056, 23, 10, 10.4944
18.5056, 3, 5, 4.49445
13.5056, 9, 2, 14.4944
14.5056, 11, 6, 10
6.49445, 20.5056, 20, 9
15, 9, 7, 7
16, 12, 8, 5
6, 18, 25, 22
16, 27.4833, 15.5167, 18
30, 15, 16, 27.4944
24, 34.5056, 34.9889, 32.5056
34, 36.5056, 49.9889, 46.0111
36, 28, 32, 44
61.9667, 42.5278, 31.4833, 59.0222
45.9889, 65, 69.0111, 61.9889
50.5056, 59.5056, 51.4833, 43.0111
63, 75, 69, 80.5056
63, 92.9889, 67, 76
75.5056, 70, 73.4944, 91.0111
81.9889, 78.5056, 83.5056, 79.4944
86.4944, 77.0111, 80, 68
70.4722, 84, 75.5278, 75.4722
104.011, 81, 73, 82.5056
102, 71.0111, 89.9889, 68.5056
81.4944, 96.0111, 84.4944, 102
66, 62.9889, 87.5167, 70.4944
88.5056, 68.9889, 82.5056, 63.9889
84, 88.0111, 101.506, 66.9889
102.494, 101, 103.494, 98.5167
121.989, 144.011, 129.483, 133.506
167.517, 200.472, 189.506, 208.011
202.472, 226.494, 282.506, 310.011
286.483, 369.011, 362.472, 403.033
427.956, 472.022, 524.989, 609.033
654.394, 685.539, 666.022, 771.967
854.022, 876.461, 935.506, 1013.42
1037.08, 1111.55, 1187.38, 1235.08
1297.96, 1407.01, 1426.01, 1500.45
1595.53, 1732.91, 1762.56, 1774.51
1793.52, 1954.97, 1909, 2034.47
2059.43, 2085.49, 2184.03, 2210.54
2192.48, 2339.94, 2305.02, 2331.98
2399, 2414.63, 2418.34, 2512.08
2485.45, 2492.06, 2576.48, 2515.46
2449.51, 2500.43, 2566.02, 2440.61
2444.48, 2418.49, 2517.54, 2397.47
2355.42, 2403.64, 2305.42, 2374.04
2286.98, 2271.07, 2279.42, 2226.49
2225.51, 2165.02, 1982.99, 2012.54
1959, 1977.54, 1972.45, 2040.02
1961.03, 1984.52, 1939.44, 1900.98
1943.12, 1934.89, 1865.07, 1815.04
1747.41, 1806.56, 1737.93, 1845.56
1845.99, 1703.52, 1769.99, 1657.46
1657.06, 1645.97, 1582.02, 1697.01
1674.49, 1694.9, 1688.04, 1759.02
1658.04, 1648.44, 1727.55, 1759.02
1613.51, 1561.91, 1605, 1688.03
1598.49, 1578.52, 1527.52, 1620.97
1474.52, 1545.56, 1493.9, 1585.53
1542.56, 1513.93, 1392.04, 1430
1435.93, 1362.07, 1374, 1335
1385.01, 1366.99, 1394.01, 1301.01
1279.97, 1254.51, 1313, 1278.48
1237.53, 1153.52, 1220.03, 1238.47
1178.98, 1139.49, 1158.04, 1130
1084.97, 1119.56, 1021.49, 1041.93
1049.57, 1011.47, 1014.01, 1009.98
987.539, 958.472, 985.967, 933.078
944.944, 985.011, 915.528, 855.417
923.056, 795.011, 827.022, 877.011
769.967, 790.461, 793.033, 716.989
744.044, 680.506, 683.461, 724.033
651.506, 681, 621.472, 630.494
622.528, 609.539, 583.483, 561
523.989, 516.978, 541, 538.033
512.472, 528.494, 523.033, 488.022
445.978, 471.011, 407.978, 446.978
439.056, 449.967, 417.494, 552.011
420.528, 373.483, 373.978, 388.033
359.506, 354.989, 358.011, 359.967
357.528, 347, 326.956, 376.55
286.472, 304.033, 301.989, 291.494
309.989, 278.022, 292, 304.483
301, 302.494, 299.528, 297.494
307.483, 301.022, 311.978, 272.011
308, 290.989, 280.494, 328.022
309, 300.967, 289.517, 332.989
345.022, 369.989, 361.494, 395.517
346.483, 408.483, 439.033, 423.978
449.494, 461.528, 423.989, 484
489.483, 491.506, 522, 561.022
560.45, 567.517, 580.472, 674.033
631.011, 720.472, 736.011, 783.461
805.483, 853.967, 936.539, 1000.51
1067.48, 1051.02, 1139.01, 1241.45
1256.51, 1449.47, 1441, 1574.96
1590.48, 1765.04, 1914.97, 2121.01
2221.49, 2502.45, 2640.94, 2851.89
3231.52, 3709.51, 3988, 4551.76
5115.99, 6069.54, 7205.69, 8548.93
10435.7, 13555, 18905, 30097.9
75910.8, 257563, 641694, 1072863
1430919.3, 1757521.3, 2110280.8, 2661568
3144663, 3226903, 3392545.5, 3412247.3
3193265, 2878809.5, 2457454.5, 1989023.1
1560097.8, 1222428.1, 775198, 322405
129432, 55115.5, 27236.3, 16712.7
11605.4, 8758.92, 6736.01, 5323.06
4501.14, 3681.55, 3086.42, 2654.71
2331.09, 1996.98, 1781.52, 1620.49
1403.06, 1280.56, 1201.47, 1046.53
956.461, 861.517, 758.022, 729.472
685.472, 629.517, 573.572, 562.989
498.011, 467.506, 403.989, 411.528
418.989, 346.967, 363.044, 346.483
314.989, 324.517, 284.506, 296.011
286.472, 235.494, 270.022, 225.506
216.494, 208.506, 200.494, 197
182.517, 190.989, 171.506, 175
177.483, 165.528, 157.506, 158.472
143.506, 123.506, 122.011, 117.483
106.022, 90.4944, 134.494, 126.494
128.989, 73.0222, 119.506, 138.989
94.4944, 109.494, 96.0111, 91.9889
86.5056, 82.4944, 92.0111, 88.4944
79.0111, 79.4944, 66.4944, 93
81.5056, 65.5056, 73.5056, 53.4944
64, 67.4944, 71, 58.5056
67.5056, 40, 47.4944, 67
49, 45, 43, 55
56, 42, 48, 47
43, 51.5056, 44.9889, 33.0111
34, 23.4944, 41.5056, 30.4944
47.5056, 21, 33.4944, 40
35.5056, 27.9889, 24.0111, 27.4833
42.5167, 19.4944, 17.5056, 29
23, 15, 25, 34
16, 128, 25, 19
27.9889, 20.0111, 26, 20
6, 21, 23.4944, 15.5056
18, 13, 15.9889, 13.0111
15, 5.49445, 17.5056, 10
9, 9, 2.49445, 17.4944
12.0111, 15.4944, 29.5056, 11
15, 8.98889, 11.0111, 13
[...]
3, 5, 4, 9
15, 15, 6, 11.4944
14.5056, 11, 10, 10
8.49445, 6.50555, 2, 6
14, 7, 11, 7
2, 9, 10, 5.49445
6.50555, 17, 10, 13
4.49445, 8.50555, 7, 6
0.000000, 10, 6, 2
10, 15, 5, 5
8
*END

*BEGIN
*GROUP		=  0
*START		=  0.4
*STOP		=  4.5
*STEP		=  0.01
*OFFSET		=  -0.088500
*SPEED		=  20.6484
*SLIT_SPEC	=  0, 1.000mm, 1, 0.000000
*SLIT_SPEC	=  1, 1.000mm, 1, 0.000000
*SLIT_SPEC	=  2, 1.000mm, 1, 0.000000
*KV		=  40
*MA		=  30
*LOW		=  0.000000
*HIGH		=  0.000000
*CTEMPER	=  0, 0.000000
*CTEMPER	=  1, 0.000000
*CTEMPER	=  2, 0.000000
*PAREX		=  0, 0.000000
*PAREX		=  1, 0.000000
*PAREX		=  2, 0.000000
*PAREX		=  3, 0.000000
*PAREX		=  4, 0.000000
*PAREX		=  5, 0.000000
*PAREX		=  6, 0.000000
*PAREX		=  7, 0.000000
*PAREX		=  8, 0.000000
*PAREX		=  9, 0.000000
*PAREX		=  10, 0.000000
*PAREX		=  11, 0.000000
*PAREX		=  12, 0.000000
*PAREX		=  13, 0.000000
*PAREX		=  14, 0.000000
*PAREX		=  15, 0.000000
*FULL_SCALE	=  29767
*INDEX		=  0, 0, 0
*COUNT		=  411
312431, 331342, 348371, 368754
380159, 391510, 401376, 413782
424083, 435546, 444870, 454091
462708, 470470, 478027, 484104
489416, 494782, 498096, 498246
498770, 499143, 496258, 491538
485009, 475467, 464968, 451419
433580, 411157, 385774, 355644
322338, 285698, 249645, 210483
173591, 139897, 111550, 90416
76789, 69274.5, 67639, 69024
72278.5, 75196, 76943, 77183
75898.5, 73913.5, 70919, 66764.5
62547, 57524, 52173.5, 47200.5
41609.5, 36988.5, 32016.5, 27616.5
23608.5, 19984, 16977, 14254
12127.5, 10316.5, 9161.5, 8297
7518.5, 7401, 7351.5, 7790
8258.5, 8791, 9274, 9804.5
10796, 11268.5, 11781.5, 12103
12524, 12808.5, 12678.5, 12782.5
12607.5, 12452.5, 11999.5, 11367
10991, 10204.5, 9741.5, 9195.5
8406.5, 7826.5, 7107, 6320.5
5857, 5146, 4773.5, 4244
3756, 3501.5, 3156.5, 2871.5
2572, 2389, 2380.5, 2164.5
2056.5, 2101.5, 2086.5, 2117.5
2215.5, 2169.5, 2304.5, 2304
2407, 2506.5, 2531.5, 2603.5
2718, 2703, 2758.5, 2744
2742, 2814, 2784, 2686
2703, 2631.5, 2567.5, 2624
2582, 2484, 2395, 2269.5
2184.5, 2070.5, 2130, 1922.5
1895, 1711, 1815, 1626.5
1564, 1527.5, 1417, 1339
1321, 1259, 1185, 1143
1128, 1086, 998.5, 1068.5
983, 892.5, 867, 858.5
900, 888.5, 867.5, 871
885.5, 904.5, 860.5, 872
908, 963.5, 994.999, 968.5
1057.5, 1026.5, 1051.5, 1061
1083, 1143, 1116, 1183
1143.5, 1164.5, 1147.5, 1113.5
1143, 1088, 1147.5, 1105
1073.5, 1064, 1043, 1014
968.5, 951.5, 929.5, 830
816, 784.5, 752.5, 715.5
677.499, 664.5, 660, 601.5
574, 575.5, 585, 576.5
533.5, 565, 537.5, 542.5
627.5, 573, 606, 615.999
579.5, 628, 672.5, 699
636.5, 684, 696, 713.5
717.5, 761.5, 711, 695.5
737, 793, 691.5, 735
620.5, 732, 740.5, 667.5
602.5, 654, 631.5, 644.5
603.5, 562.5, 582.5, 529
569, 547.5, 494.5, 516.5
499, 518.5, 513, 467.5
548.5, 495, 412.5, 468
437, 444.5, 444.5, 475.5
482, 451, 525, 450.5
479.5, 441.5, 424.5, 498.5
449, 485.5, 559.5, 516.5
496.5, 479.5, 481.5, 507.5
516, 473, 478.5, 503
515, 504, 512, 444.5
493, 487.5, 456.5, 504
455.5, 465.501, 441.5, 455.5
461.5, 459, 432, 507.5
500, 419.5, 454.5, 408.5
386.5, 430, 454, 389
455, 430.5, 440.5, 472.5
389.5, 431, 422, 453.5
405, 450.5, 431, 399
401.5, 448, 392.5, 370.5
414.5, 396, 397.5, 423
459.5, 430.5, 462.5, 420
418, 436.5, 431.5, 438.5
432.5, 421, 452, 428.5
460.5, 474, 429, 462
389, 450.5, 465.5, 421
450, 405, 425.5, 404.5
378.5, 422, 404, 395.5
388, 389.5, 381, 416
423.5, 409.5, 397.5, 404.5
403.5, 368, 385, 445.5
379.5, 406, 404, 385.5
397, 444, 408, 423.5
388.5, 423.5, 443.5, 406.5
399, 429, 424, 433.501
417.5, 424, 425.5, 391.5
383, 436, 431.5, 409.5
392.5, 429.5, 363.5, 404.5
426.5, 400, 374.5, 391
422, 424.5, 376, 393
406, 408, 421.5, 384
408.5, 347.5, 412, 400.5
379.001, 386.999, 408.5
*END

*EOF