Folder: Analysis/XRD:XRR/SCO/22155_SCO(CL)

File: 22155_SCO(CL)_XRD.csv
#twotheta, yobs, ycal, bkg, diff
42.0,17.4944,1.0,1.0,1.0
42.05,18.0,1.0,1.0,1.0
42.1,17.5056,1.0,1.0,1.0
42.15,5.0,1.0,1.0,1.0
42.2,11.0,1.0,1.0,1.0
42.25,11.0,1.0,1.0,1.0
42.3,14.5056,1.0,1.0,1.0
42.35,5.0,1.0,1.0,1.0
42.4,11.0,1.0,1.0,1.0
42.45,6.5056,1.0,1.0,1.0
42.5,17.4944,1.0,1.0,1.0
42.55,15.0111,1.0,1.0,1.0
42.6,18.4944,1.0,1.0,1.0
42.65,23.0,1.0,1.0,1.0
42.7,20.5056,1.0,1.0,1.0
42.75,24.0,1.0,1.0,1.0
42.8,19.0,1.0,1.0,1.0
42.85,34.4944,1.0,1.0,1.0
42.9,28.0,1.0,1.0,1.0
42.95,35.0111,1.0,1.0,1.0
43.0,15.0,1.0,1.0,1.0
43.05,25.0,1.0,1.0,1.0
43.1,21.0,1.0,1.0,1.0
43.15,10.0,1.0,1.0,1.0
43.2,15.0,1.0,1.0,1.0
43.25,9.0,1.0,1.0,1.0
43.3,12.0,1.0,1.0,1.0
43.35,10.0,1.0,1.0,1.0
43.4,11.0,1.0,1.0,1.0
43.45,6.0,1.0,1.0,1.0
43.5,2.0,1.0,1.0,1.0
43.55,18.0,1.0,1.0,1.0
43.6,15.4944,1.0,1.0,1.0
43.65,12.0,1.0,1.0,1.0
43.7,17.0,1.0,1.0,1.0
43.75,18.0,1.0,1.0,1.0
43.8,16.0,1.0,1.0,1.0
43.85,35.0,1.0,1.0,1.0
43.9,24.4944,1.0,1.0,1.0
43.95,24.0,1.0,1.0,1.0
44.0,16.0,1.0,1.0,1.0
44.05,16.0,1.0,1.0,1.0
44.1,30.0,1.0,1.0,1.0
44.15,11.5056,1.0,1.0,1.0
44.2,16.0,1.0,1.0,1.0
44.25,11.0,1.0,1.0,1.0
44.3,24.0,1.0,1.0,1.0
44.35,30.0,1.0,1.0,1.0
44.4,59.4944,1.0,1.0,1.0
44.45,94.0,1.0,1.0,1.0
44.5,115.0111,1.0,1.0,1.0
44.55,144.0111,1.0,1.0,1.0
44.6,176.4944,1.0,1.0,1.0
44.65,213.0,1.0,1.0,1.0
44.7,284.4944,1.0,1.0,1.0
44.75,335.0111,1.0,1.0,1.0
44.8,324.4833,1.0,1.0,1.0
44.85,397.5056,1.0,1.0,1.0
44.9,466.5167,1.0,1.0,1.0
44.95,496.4944,1.0,1.0,1.0
45.0,550.5611,1.0,1.0,1.0
45.05,592.4944,1.0,1.0,1.0
45.1,587.4833,1.0,1.0,1.0
45.15,574.4944,1.0,1.0,1.0
45.2,629.9778,1.0,1.0,1.0
45.25,698.4611,1.0,1.0,1.0
45.3,702.5167,1.0,1.0,1.0
45.35,702.9778,1.0,1.0,1.0
45.4,747.4389,1.0,1.0,1.0
45.45,857.9889,1.0,1.0,1.0
45.5,887.4833,1.0,1.0,1.0
45.55,1082.97,1.0,1.0,1.0
45.6,1135.03,1.0,1.0,1.0
45.65,1320.97,1.0,1.0,1.0
45.7,1637.96,1.0,1.0,1.0
45.75,1757.46,1.0,1.0,1.0
45.8,2142.07,1.0,1.0,1.0
45.85,2455.55,1.0,1.0,1.0
45.9,2755.12,1.0,1.0,1.0
45.95,2961.01,1.0,1.0,1.0
46.0,3475.58,1.0,1.0,1.0
46.05,3668.49,1.0,1.0,1.0
46.1,4093.45,1.0,1.0,1.0
46.15,4436.46,1.0,1.0,1.0
46.2,4556.03,1.0,1.0,1.0
46.25,4553.32,1.0,1.0,1.0
46.3,4831.06,1.0,1.0,1.0
46.35,4809.13,1.0,1.0,1.0
46.4,4746.46,1.0,1.0,1.0
46.45,4626.88,1.0,1.0,1.0
46.5,4461.97,1.0,1.0,1.0
46.55,4211.9,1.0,1.0,1.0
46.6,3959.94,1.0,1.0,1.0
46.65,3464.54,1.0,1.0,1.0
46.7,3180.0,1.0,1.0,1.0
46.75,2742.01,1.0,1.0,1.0
46.8,2327.51,1.0,1.0,1.0
46.85,1902.53,1.0,1.0,1.0
46.9,1487.53,1.0,1.0,1.0
46.95,1094.94,1.0,1.0,1.0
47.0,750.0,1.0,1.0,1.0
47.05,477.5278,1.0,1.0,1.0
47.1,287.9667,1.0,1.0,1.0
47.15,143.0333,1.0,1.0,1.0
47.2,117.5167,1.0,1.0,1.0
47.25,134.5278,1.0,1.0,1.0
47.3,215.9889,1.0,1.0,1.0
47.35,456.4944,1.0,1.0,1.0
47.4,659.4722,1.0,1.0,1.0
47.45,1061.51,1.0,1.0,1.0
47.5,1533.99,1.0,1.0,1.0
47.55,2040.98,1.0,1.0,1.0
47.6,2709.01,1.0,1.0,1.0
47.65,3424.39,1.0,1.0,1.0
47.7,4427.86,1.0,1.0,1.0
47.75,6149.811,1.0,1.0,1.0
47.8,9338.29,1.0,1.0,1.0
47.85,16516.6,1.0,1.0,1.0
47.9,45706.6,1.0,1.0,1.0
47.95,2809799.0,1.0,1.0,1.0
48.0,5940792.0,1.0,1.0,1.0
48.05,95263.4,1.0,1.0,1.0
48.1,14752.1,1.0,1.0,1.0
48.15,6343.03,1.0,1.0,1.0
48.2,3779.58,1.0,1.0,1.0
48.25,2596.561,1.0,1.0,1.0
48.3,1912.02,1.0,1.0,1.0
48.35,1396.47,1.0,1.0,1.0
48.4,1095.08,1.0,1.0,1.0
48.45,850.0,1.0,1.0,1.0
48.5,670.0111,1.0,1.0,1.0
48.55,491.4611,1.0,1.0,1.0
48.6,395.5056,1.0,1.0,1.0
48.65,259.4833,1.0,1.0,1.0
48.7,213.0111,1.0,1.0,1.0
48.75,136.5167,1.0,1.0,1.0
48.8,93.5056,1.0,1.0,1.0
48.85,77.5056,1.0,1.0,1.0
48.9,61.4833,1.0,1.0,1.0
48.95,45.5056,1.0,1.0,1.0
49.0,29.5056,1.0,1.0,1.0
49.05,45.5056,1.0,1.0,1.0
49.1,58.0,1.0,1.0,1.0
49.15,65.5056,1.0,1.0,1.0
49.2,55.4944,1.0,1.0,1.0
49.25,51.5056,1.0,1.0,1.0
49.3,54.0,1.0,1.0,1.0
49.35,52.4944,1.0,1.0,1.0
49.4,53.5056,1.0,1.0,1.0
49.45,44.5056,1.0,1.0,1.0
49.5,41.4833,1.0,1.0,1.0
49.55,22.9889,1.0,1.0,1.0
49.6,34.0,1.0,1.0,1.0
49.65,28.5056,1.0,1.0,1.0
49.7,23.4944,1.0,1.0,1.0
49.75,26.5056,1.0,1.0,1.0
49.8,22.0,1.0,1.0,1.0
49.85,16.0,1.0,1.0,1.0
49.9,6.0,1.0,1.0,1.0
49.95,13.0,1.0,1.0,1.0
50.0,5.0,1.0,1.0,1.0
50.05,8.5056,1.0,1.0,1.0
50.1,27.9889,1.0,1.0,1.0
50.15,5.4944,1.0,1.0,1.0
50.2,17.4944,1.0,1.0,1.0
50.25,23.0,1.0,1.0,1.0
50.3,10.0,1.0,1.0,1.0
50.35,20.5056,1.0,1.0,1.0
50.4,13.4944,1.0,1.0,1.0
50.45,20.0,1.0,1.0,1.0
50.5,0.0,1.0,1.0,1.0
50.55,19.4944,1.0,1.0,1.0
50.6,22.0,1.0,1.0,1.0
50.65,7.0,1.0,1.0,1.0
50.7,14.0,1.0,1.0,1.0
50.75,4.0,1.0,1.0,1.0
50.8,7.0,1.0,1.0,1.0
50.85,0.5056,1.0,1.0,1.0
50.9,8.0111,1.0,1.0,1.0
50.95,5.0,1.0,1.0,1.0
51.0,8.0,1.0,1.0,1.0
51.05,4.0,1.0,1.0,1.0
51.1,4.0,1.0,1.0,1.0
51.15,6.0,1.0,1.0,1.0
51.2,10.0,1.0,1.0,1.0
51.25,3.0,1.0,1.0,1.0
51.3,4.0,1.0,1.0,1.0
51.35,13.4944,1.0,1.0,1.0
51.4,9.0,1.0,1.0,1.0
51.45,12.0,1.0,1.0,1.0
51.5,9.0,1.0,1.0,1.0
51.55,8.0,1.0,1.0,1.0
51.6,13.0,1.0,1.0,1.0
51.65,9.0,1.0,1.0,1.0
51.7,9.0,1.0,1.0,1.0
51.75,4.0,1.0,1.0,1.0
51.8,8.0,1.0,1.0,1.0
51.85,0.0,1.0,1.0,1.0
51.9,3.0,1.0,1.0,1.0
51.95,5.0,1.0,1.0,1.0
52.0,14.0,1.0,1.0,1.0
0.44,926225.5,1.0,1.0,1.0
0.49,1009079.5,1.0,1.0,1.0
0.54,1068954.5,1.0,1.0,1.0
0.59,1097799.5,1.0,1.0,1.0
0.64,1071404.5,1.0,1.0,1.0
0.69,970869.5,1.0,1.0,1.0
0.74,771547,1.0,1.0,1.0
0.79,503323,1.0,1.0,1.0
0.84,285669,1.0,1.0,1.0
0.89,167375,1.0,1.0,1.0
0.94,102863,1.0,1.0,1.0
0.99,64752,1.0,1.0,1.0
1.04,40530.5,1.0,1.0,1.0
1.09,25040.502,1.0,1.0,1.0
1.14,15821.002,1.0,1.0,1.0
1.19,10167.501,1.0,1.0,1.0
1.24,7040.001,1.0,1.0,1.0
1.29,5628.5,1.0,1.0,1.0
1.34,4753.0,1.0,1.0,1.0
1.39,4509,1.0,1.0,1.0
1.44,4505.0,1.0,1.0,1.0
1.49,4439.999,1.0,1.0,1.0
1.54,4431.5,1.0,1.0,1.0
1.59,4274.5,1.0,1.0,1.0
1.64,4111,1.0,1.0,1.0
1.69,3782.501,1.0,1.0,1.0
1.74,3448.5,1.0,1.0,1.0
1.79,3264.0,1.0,1.0,1.0
1.84,2855.5,1.0,1.0,1.0
1.89,2718.0,1.0,1.0,1.0
1.94,2323.5,1.0,1.0,1.0
1.99,2076,1.0,1.0,1.0
2.04,1938.0,1.0,1.0,1.0
2.09,1793,1.0,1.0,1.0
2.14,1695.5,1.0,1.0,1.0
2.19,1509.5,1.0,1.0,1.0
2.24,1430,1.0,1.0,1.0
2.29,1350,1.0,1.0,1.0
2.34,1268.5,1.0,1.0,1.0
2.39,1105.5,1.0,1.0,1.0
2.44,1072.5,1.0,1.0,1.0
2.49,946.0001,1.0,1.0,1.0
2.54,939.4996,1.0,1.0,1.0
2.59,767.0002,1.0,1.0,1.0
2.64,657.5005,1.0,1.0,1.0
2.69,561.0007,1.0,1.0,1.0
2.74,477.0001,1.0,1.0,1.0
2.79,370.0001,1.0,1.0,1.0
2.84,367.9998,1.0,1.0,1.0
2.89,335.5001,1.0,1.0,1.0
2.94,263.4999,1.0,1.0,1.0
2.99,236.5002,1.0,1.0,1.0
3.04,188.5001,1.0,1.0,1.0
3.09,201.0001,1.0,1.0,1.0
3.14,166.9997,1.0,1.0,1.0
3.19,195.5002,1.0,1.0,1.0
3.24,170.4999,1.0,1.0,1.0
3.29,178.4998,1.0,1.0,1.0
3.34,211.9999,1.0,1.0,1.0
3.39,214.0002,1.0,1.0,1.0
3.44,209.0001,1.0,1.0,1.0
3.49,159.0002,1.0,1.0,1.0
3.54,166.4999,1.0,1.0,1.0
3.59,189.4998,1.0,1.0,1.0
3.64,186.5001,1.0,1.0,1.0
3.69,175.0002,1.0,1.0,1.0
3.74,187.9997,1.0,1.0,1.0
3.79,161.4999,1.0,1.0,1.0
3.84,159.0,1.0,1.0,1.0
3.89,173.0001,1.0,1.0,1.0
3.94,179.4996,1.0,1.0,1.0
3.99,174.0001,1.0,1.0,1.0
4.04,218.0002,1.0,1.0,1.0
4.09,215.0,1.0,1.0,1.0
4.14,164.0002,1.0,1.0,1.0
4.19,196.4998,1.0,1.0,1.0
4.24,185.9999,1.0,1.0,1.0
4.29,210.5003,1.0,1.0,1.0
4.34,160.5001,1.0,1.0,1.0
4.39,217.5002,1.0,1.0,1.0
4.44,238.0,1.0,1.0,1.0
4.49,193.0,1.0,1.0,1.0
4.5,195.0,1.0,1.0,1.0

File: 22155_SCO(CL)_XRD_2-Theta_Omega.asc
*TYPE		=  Raw
*CLASS		=  ASCII CLASS
*SAMPLE		=
*COMMENT	=
*FNAME		=  22155_SCO(CL)_XRD_2-Theta_Omega.asc
*DATE		=  25-Oct-22 02:54

*GROUP_COUNT	=  1
*GONIO		=  SmartLab(In-plane), 0.000000
*ATTACHMENT	=  Z-Phi Stage
*ASC		=  0, 0, 0.000000, 0.000000
*I_MONOCHRO	=  Ge(220)x2, 0.000000
*FILTER		=  None
*C_MONOCHRO	=  None, 0.000000
*SLIT_NAME	=  0, Incident slit
*SLIT_NAME	=  1, Receiving slit # 1
*SLIT_NAME	=  2, Receiving slit # 2
*COUNTER	=  D/teX Ultra 250, 0
*POS_FORMAT	=  0
*SCAN_AXIS	=  2Theta/Omega
*MEAS_MODE	=  Continuous Scanning
*TARGET		=  29
*XRAY_CHAR	=  K-ALPHA1
*WAVE_LENGTH1	=  1.54059
*WAVE_LENGTH2	=  1.54441
*THICKNESS	=  0, 0.000000
*MU		=  0, 0.000000
*SCAN_MODE	=  2Theta/Omega
*SPEED_DIM	=  sec./step
*XUNIT		=  deg.
*YUNIT		=  counts
*SCALE_MODE	=  1
*REP_COUNT	=  0
*SE_COUNT	=  0
*STD_MATERIAL	=  Unknown, Unknown, 0.000000, 0.000000, 0.000000, 0.000000, 0.000000, 0.000000
*LATT_CONS	=  0, Unknown, Unknown, 0.000000, 0.000000, 0.000000, 0.000000, 0.000000, 0.000000
*SEC_COUNT	=  2
*TSPEC_SIZE	=  0
*EXTRA_SIZE	=  0
*MEMO		=

*BEGIN
*GROUP		=  0
*START		=  42
*STOP		=  52
*STEP		=  0.01
*OFFSET		=  -0.024300
*SPEED		=  23.9588
*SLIT_SPEC	=  0, 0.400mm, 0.4, 0.000000
*SLIT_SPEC	=  1, 0.400mm, 0.4, 0.000000
*SLIT_SPEC	=  2, 0.400mm, 0.4, 0.000000
*KV		=  40
*MA		=  30
*LOW		=  0.000000
*HIGH		=  0.000000
*CTEMPER	=  0, 0.000000
*CTEMPER	=  1, 0.000000
*CTEMPER	=  2, 0.000000
*PAREX		=  0, 0.000000
*PAREX		=  1, 0.000000
*PAREX		=  2, 0.000000
*PAREX		=  3, 0.000000
*PAREX		=  4, 0.000000
*PAREX		=  5, 0.000000
*PAREX		=  6, 0.000000
*PAREX		=  7, 0.000000
*PAREX		=  8, 0.000000
*PAREX		=  9, 0.000000
*PAREX		=  10, 0.000000
*PAREX		=  11, 0.000000
*PAREX		=  12, 0.000000
*PAREX		=  13, 0.000000
*PAREX		=  14, 0.000000
*PAREX		=  15, 0.000000
*FULL_SCALE	=  541852
*INDEX		=  0, 0, 0
*COUNT		=  1001
17.4944, 13.5056, 8, 16
18, 18, 4, 9
8, 8.49445, 17.5056, 6
8.49445, 17.5056, 9, 5
13, 7, 0.000000, 15
11, 11.4944, 5.50555, 11
3, 11, 14.4944, 7
17.5056, 5.49445, 14.5056, 8
6, 12, 14, 5
3.49445, 5.50555, 14, 15
11, 6.49445, 18, 6.50555
4.49445, 6.50555, 14.4944, 12
7.50555, 8, 17.4944, 5.50555
18, 24, 11.9889, 15.0111
20, 14.4944, 16.4944, 16.0111
18.4944, 16.4944, 9.01111, 12
22, 23, 10.4944, 18.5056
33.4944, 24, 20.5056, 35
10, 31.4944, 28.5056, 24
29, 22, 29.4944, 15.5056
19, 22, 29, 37.4944
24.5056, 34.4944, 13.5056, 19
41, 27, 28, 11
23, 17, 22.9889, 35.0111
35, 20.4944, 15.5056, 19
15, 20.9889, 17.0111, 22.4944
30.4944, 25, 16.5056, 26.5056
14.4944, 10.5056, 21, 18
15.9889, 28.0111, 13, 10
21.4944, 18.5056, 11, 18
15, 12, 8.49445, 6.50555
10, 9, 2, 13.4944
4.50555, 7, 12, 7
9, 9, 11, 10
13, 10, 7, 5
11, 3, 16, 6
16, 6, 7, 11
8, 3, 2, 12
15.9889, 11.0111, 8, 18
10.4944, 5.50555, 18, 6
15.4944, 4, 13.5056, 29
12, 12, 21, 18
31, 31, 17, 18
29, 19.4944, 29.5056, 18
22, 21, 20.4944, 20.5056
16, 13, 14, 11.4944
20.5056, 35, 19, 11
16, 17, 24.4944, 26.5056
30, 28.4944, 27.5056, 24
15.9889, 15.5056, 21.5056, 24
16, 16, 11, 25
16, 16, 16.4944, 16
15.5056, 15, 30, 11
8.49445, 10, 9, 11.5056
15, 2, 14, 7
16, 5, 7, 18.4944
19.5056, 11, 16, 13
11, 17, 24, 13
26, 19, 49, 30
35, 35.9889, 48.0111, 50.4944
59.4944, 60, 64.5056, 51.4944
68.5056, 94, 87.5056, 69.4944
93, 120.989, 115.011, 105.494
116.989, 108.494, 129.506, 144.011
155.989, 160.494, 150.022, 154
176.494, 198.494, 221.506, 196.494
217.978, 213, 241.517, 263
268.506, 286.494, 284.494, 305.978
314.033, 292.494, 319.978, 335.011
342.506, 337.506, 359.989, 320.494
324.483, 439.022, 396.989, 457.978
450.506, 397.506, 421.033, 458.967
471.022, 473.978, 466.517, 464.506
475.967, 468.011, 493.022, 496.494
506.494, 554.483, 613.55, 617.911
550.561, 565.989, 582.483, 596.528
578.461, 592.494, 552.022, 612.483
616.022, 533.506, 587.483, 575.011
615.956, 603.078, 607.461, 574.494
666.506, 629.989, 684.022, 620.494
629.978, 658.494, 599.506, 664.044
660.483, 698.461, 634.506, 618.033
671.483, 676.978, 702.517, 707.506
689.45, 738.056, 686.011, 702.978
737.506, 711.528, 694.956, 748.55
747.439, 799.517, 819.978, 820.011
816.539, 857.989, 872.494, 859.967
818.483, 917.539, 887.483, 960.494
997.517, 1061.97, 988.539, 1082.97
1096.46, 1124.04, 1093.51, 1157.94
1135.03, 1266, 1265.51, 1278.99
1306.47, 1320.97, 1351.04, 1390.47
1482.01, 1523.01, 1637.96, 1633.44
1705.01, 1788.09, 1846.48, 1757.46
1872.51, 1947.02, 1937.48, 2030.41
2142.07, 2188.49, 2156.49, 2327.49
2294.98, 2455.55, 2466.42, 2531
2561.94, 2634.52, 2755.12, 2880.89
2905.53, 2768.41, 3037.04, 2961.01
3141.49, 3125.49, 3258.43, 3290.02
3475.58, 3362.42, 3533.43, 3565.07
3628.46, 3668.49, 3891.99, 3787.49
3935.94, 3940.61, 4093.45, 4113.42
4118.02, 4183.62, 4257.45, 4436.46
4184, 4307.94, 4435.17, 4340.88
4556.03, 4480.42, 4599.57, 4805.96
4572.06, 4553.32, 4665.09, 4631.08
4642.92, 4861.47, 4831.06, 4768.02
4846.45, 4814, 4750.1, 4809.13
4824.77, 4889.03, 4770.57, 4719.47
4746.46, 4645.55, 4678.44, 4700.52
4715.58, 4626.88, 4707.52, 4530.59
4632.01, 4474.46, 4461.97, 4342.54
4371.49, 4318.07, 4219.02, 4211.9
4185.1, 4100.45, 3953.04, 3957.49
3959.94, 3833.08, 3760.49, 3692.9
3563.07, 3464.54, 3578, 3405.93
3298.55, 3264.06, 3180, 3081.51
3070.98, 3009.53, 2872.04, 2742.01
2557.98, 2609.12, 2463.91, 2449
2327.51, 2197.51, 2144.99, 2005
2081.02, 1902.53, 1743.48, 1692.08
1645.98, 1600.01, 1487.53, 1436.52
1275.51, 1247.48, 1134.52, 1094.94
1065.56, 990.494, 902.044, 896.483
750, 739.528, 670.506, 598
552.989, 477.528, 400.483, 428.033
343.483, 321.528, 287.967, 285.528
236.494, 195.494, 166.483, 143.033
129.989, 135.506, 101.506, 115.989
117.517, 113.494, 96.4944, 113.989
115.494, 134.528, 140.461, 161.022
165.011, 209.494, 215.989, 283.022
321.461, 342.033, 362.483, 456.494
459.483, 554.978, 614.022, 597.483
659.472, 746.978, 874.517, 900.472
978, 1061.51, 1144.47, 1205.49
1254.47, 1342.04, 1533.99, 1571.9
1622.56, 1760, 1915, 2040.98
2107.96, 2288.06, 2383.42, 2433.99
2709.01, 2671.49, 2952.43, 3114.97
3202.04, 3424.39, 3599.56, 3848.39
4071.56, 4282.58, 4427.86, 4928.47
5213.16, 5509.82, 5839.44, 6149.81
6684.49, 7202.55, 7856.83, 8335
9338.29, 10291.3, 11522.9, 12694.3
14656.4, 16516.6, 19443.8, 23515.6
28189, 35408.6, 45706.6, 63311.4
94482, 164316, 590191, 2809799
5392257.5, 6682977, 9362910, 9925032
5940792, 2686892.3, 1364291.4, 631863
217200, 95263.4, 51378.9, 33877.5
25063.4, 18820.6, 14752.1, 11954.2
9818.41, 8363, 7290.71, 6343.03
5557.09, 5024.64, 4521.46, 4068.96
3779.58, 3483.61, 3191.46, 2876.53
2786.47, 2596.56, 2473.47, 2339.07
2177.07, 2052.48, 1912.02, 1816.94
1686.07, 1694.52, 1511.51, 1396.47
1450.56, 1369.97, 1221.48, 1167.51
1095.08, 1034.47, 1045.98, 1008.04
907.506, 850, 850.022, 779.494
745.033, 723.944, 670.011, 690.989
614.528, 552.506, 519.506, 491.461
495.056, 409.483, 426.989, 429.55
395.506, 365.967, 335.517, 309.967
287.044, 259.483, 198.022, 227.989
214, 209.506, 213.011, 166.989
161.506, 139.011, 170.978, 136.517
113.989, 90.0222, 101.989, 118.506
93.5056, 103.978, 102.011, 79.0111
70.9889, 77.5056, 52.5056, 59.4944
49.5056, 38, 61.4833, 50.0111
44.5056, 29.4944, 28, 45.5056
26.9889, 29, 46.5056, 29
29.5056, 29.4944, 47.4944, 39.5056
40, 45.5056, 58.4944, 32.4944
24.0111, 41.9889, 58, 59
59, 63.5056, 54, 65.5056
48, 55.9889, 49.5056, 48.5056
55.4944, 48, 73.4944, 64.5056
45.4944, 51.5056, 57.5056, 49.4944
60, 67.5056, 54, 60
[...]
12, 0.000000, 6, 8
8, 10, 7, 8
13, 6, 9, 7
17, 9, 7, 17
7, 14, 9, 4
5, 5, 8, 4
12.4944, 7.50555, 16, 12
8, 5, 5, 4
8, 0.000000, 4, 6
0.000000, 7, 3, 4
11, 9, 0.000000, 5
3, 11, 5, 8
14
*END

*BEGIN
*GROUP		=  0
*START		=  0.4
*STOP		=  4.5
*STEP		=  0.01
*OFFSET		=  -0.024300
*SPEED		=  11.9584
*SLIT_SPEC	=  0, 1.000mm, 1, 0.000000
*SLIT_SPEC	=  1, 1.000mm, 1, 0.000000
*SLIT_SPEC	=  2, 1.000mm, 1, 0.000000
*KV		=  40
*MA		=  30
*LOW		=  0.000000
*HIGH		=  0.000000
*CTEMPER	=  0, 0.000000
*CTEMPER	=  1, 0.000000
*CTEMPER	=  2, 0.000000
*PAREX		=  0, 0.000000
*PAREX		=  1, 0.000000
*PAREX		=  2, 0.000000
*PAREX		=  3, 0.000000
*PAREX		=  4, 0.000000
*PAREX		=  5, 0.000000
*PAREX		=  6, 0.000000
*PAREX		=  7, 0.000000
*PAREX		=  8, 0.000000
*PAREX		=  9, 0.000000
*PAREX		=  10, 0.000000
*PAREX		=  11, 0.000000
*PAREX		=  12, 0.000000
*PAREX		=  13, 0.000000
*PAREX		=  14, 0.000000
*PAREX		=  15, 0.000000
*FULL_SCALE	=  112054
*INDEX		=  0, 0, 0
*COUNT		=  411
842940, 866610, 885733, 905687
926226, 940264, 960284, 976877
993722, 1009079.5, 1025461, 1036020.5
1048706.5, 1060442, 1068954.5, 1077609.5
1085677, 1092281.5, 1094240.5, 1097799.5
1095540.5, 1091546, 1089399.5, 1080144
1071404.5, 1058718, 1038901, 1021846
998945, 970870, 940218, 903867
866859, 821671, 771547, 723158
670100, 613512, 559341, 503323
452146, 403605, 359867, 321511
285669, 255978, 229270, 206337
185735, 167375, 152728, 137608
125153, 113655, 102863, 93665
84974.5, 77949.5, 70862, 64752
58617.5, 53290, 48516, 44231.5
40530.5, 37185.5, 33315, 30695.5
28117.5, 25040.5, 22868, 20890.5
19174, 17481, 15821, 14545.5
13420, 12058, 11232.5, 10167.5
9471.5, 8708.5, 8283.5, 7572
7040, 6620.5, 6221, 5935.5
5507.5, 5628.5, 5364.5, 5064
4961, 4700, 4753, 4656
4615, 4537, 4694.5, 4509
4568.5, 4591.5, 4461, 4405
4505, 4468.5, 4400.5, 4483.5
4353.5, 4440, 4385, 4532
4499.5, 4383.5, 4431.5, 4510
4400, 4387, 4280, 4274.5
4219.5, 4190.5, 4175.5, 4164
4111, 4041.5, 3982, 4060
3885.5, 3782.5, 3799.5, 3729
3740.5, 3647.5, 3448.5, 3502
3466.5, 3315, 3215.5, 3264
3123, 3127, 3020, 2819
2855.5, 2915.5, 2838.5, 2790
2717.5, 2718, 2516, 2456
2535.5, 2412, 2323.5, 2298
2233, 2243.5, 2194, 2076
2089, 2015, 2082.5, 2025.5
1938, 1872.5, 1895.5, 1811.5
1894.5, 1793, 1802.5, 1698
1652.5, 1625, 1695.5, 1565
1629, 1541.5, 1639, 1509.5
1524.5, 1470, 1493.5, 1426
1430, 1474.5, 1379.5, 1357.5
1399, 1350, 1379.5, 1388.5
1330.5, 1287, 1268.5, 1288
1260, 1205, 1224, 1105.5
1183.5, 1162, 1066, 1061.5
1072.5, 1016, 1054, 1062
1020.5, 946, 929.5, 908
936.5, 877, 939.5, 817.5
888.5, 791, 790.5, 767
717.5, 764.5, 725, 697
657.5, 646.5, 629.5, 635
644.5, 561.001, 594.5, 580
564.5, 571.5, 477, 454
466, 444.001, 386, 370
395, 377, 398.5, 304.5
368, 350, 303, 340
301.5, 335.5, 307.5, 286
279.5, 284.5, 263.5, 296.5
227, 267.5, 224, 236.5
213.5, 254, 248, 225
188.5, 223.5, 179.5, 220
218, 201, 199, 204.5
188, 203.5, 167, 221
217.5, 196, 178, 195.5
180, 216.5, 186, 184
170.5, 203.5, 219, 200.5
223, 178.5, 195.5, 182
222, 206, 212, 191
188, 186, 202, 214
200, 210, 167, 232
209, 205.5, 175, 160.5
193.5, 159, 172.5, 202
201, 196.5, 166.5, 154.5
175.5, 169, 205, 189.5
213.5, 187, 177, 214.5
186.5, 195, 216, 193.5
185, 175, 209, 191
217.5, 167.5, 188, 183.5
188, 176.5, 152.5, 161.5
175, 176, 165, 185.5
159, 201, 141.5, 168
155, 173, 191.5, 181.5
223.5, 191.5, 179.5, 190.5
194, 228.5, 191, 174
184.5, 161, 201.5, 192.5
218, 188, 229, 194
192, 215, 216.5, 196
190, 194.5, 164, 189
182, 179.5, 206, 196.5
229, 216, 189.5, 192
186, 200, 196.5, 170.5
201, 210.5, 211.5, 181.5
221.5, 207, 160.5, 193
189, 167.5, 215, 217.5
190.5, 182, 212, 208.5
238, 200.5, 188, 174
193.5, 193, 195
*END

*EOF