Folder: Analysis/XRD:XRR/SCO/22154_SCO(CL)

File: 22154_SCO(CL)_XRD.csv
#twotheta, yobs, ycal, bkg, diff
42.0,28.5056,1.0,1.0,1.0
42.05,12.4944,1.0,1.0,1.0
42.1,8.0,1.0,1.0,1.0
42.15,13.5056,1.0,1.0,1.0
42.2,15.0,1.0,1.0,1.0
42.25,15.5056,1.0,1.0,1.0
42.3,22.0,1.0,1.0,1.0
42.35,13.4944,1.0,1.0,1.0
42.4,25.9889,1.0,1.0,1.0
42.45,16.5056,1.0,1.0,1.0
42.5,22.0,1.0,1.0,1.0
42.55,22.0,1.0,1.0,1.0
42.6,51.9889,1.0,1.0,1.0
42.65,28.5167,1.0,1.0,1.0
42.7,30.0,1.0,1.0,1.0
42.75,17.0,1.0,1.0,1.0
42.8,27.0,1.0,1.0,1.0
42.85,32.9889,1.0,1.0,1.0
42.9,32.0,1.0,1.0,1.0
42.95,25.0,1.0,1.0,1.0
43.0,34.0,1.0,1.0,1.0
43.05,34.9889,1.0,1.0,1.0
43.1,37.0,1.0,1.0,1.0
43.15,30.0,1.0,1.0,1.0
43.2,21.0,1.0,1.0,1.0
43.25,21.0,1.0,1.0,1.0
43.3,35.0,1.0,1.0,1.0
43.35,31.0,1.0,1.0,1.0
43.4,36.0,1.0,1.0,1.0
43.45,30.4944,1.0,1.0,1.0
43.5,32.0,1.0,1.0,1.0
43.55,26.4944,1.0,1.0,1.0
43.6,31.0,1.0,1.0,1.0
43.65,38.0,1.0,1.0,1.0
43.7,24.5056,1.0,1.0,1.0
43.75,18.0,1.0,1.0,1.0
43.8,26.4944,1.0,1.0,1.0
43.85,41.4944,1.0,1.0,1.0
43.9,35.5056,1.0,1.0,1.0
43.95,30.0,1.0,1.0,1.0
44.0,26.5056,1.0,1.0,1.0
44.05,34.4944,1.0,1.0,1.0
44.1,24.0,1.0,1.0,1.0
44.15,42.5056,1.0,1.0,1.0
44.2,25.4944,1.0,1.0,1.0
44.25,44.5056,1.0,1.0,1.0
44.3,58.0,1.0,1.0,1.0
44.35,45.5056,1.0,1.0,1.0
44.4,52.5167,1.0,1.0,1.0
44.45,61.0,1.0,1.0,1.0
44.5,83.4833,1.0,1.0,1.0
44.55,96.4944,1.0,1.0,1.0
44.6,97.4944,1.0,1.0,1.0
44.65,146.5056,1.0,1.0,1.0
44.7,146.9889,1.0,1.0,1.0
44.75,180.4944,1.0,1.0,1.0
44.8,185.4833,1.0,1.0,1.0
44.85,205.0222,1.0,1.0,1.0
44.9,271.0111,1.0,1.0,1.0
44.95,285.4722,1.0,1.0,1.0
45.0,313.4722,1.0,1.0,1.0
45.05,398.9667,1.0,1.0,1.0
45.1,415.0111,1.0,1.0,1.0
45.15,486.5056,1.0,1.0,1.0
45.2,556.4944,1.0,1.0,1.0
45.25,560.9889,1.0,1.0,1.0
45.3,647.5278,1.0,1.0,1.0
45.35,702.4833,1.0,1.0,1.0
45.4,710.9778,1.0,1.0,1.0
45.45,877.0111,1.0,1.0,1.0
45.5,905.0778,1.0,1.0,1.0
45.55,974.5167,1.0,1.0,1.0
45.6,1088.44,1.0,1.0,1.0
45.65,1101.55,1.0,1.0,1.0
45.7,1278.45,1.0,1.0,1.0
45.75,1334.56,1.0,1.0,1.0
45.8,1500.98,1.0,1.0,1.0
45.85,1574.45,1.0,1.0,1.0
45.9,1821.0,1.0,1.0,1.0
45.95,2098.0,1.0,1.0,1.0
46.0,2368.51,1.0,1.0,1.0
46.05,2375.06,1.0,1.0,1.0
46.1,2517.52,1.0,1.0,1.0
46.15,2911.94,1.0,1.0,1.0
46.2,3212.99,1.0,1.0,1.0
46.25,3620.58,1.0,1.0,1.0
46.3,3931.51,1.0,1.0,1.0
46.35,4518.89,1.0,1.0,1.0
46.4,4857.99,1.0,1.0,1.0
46.45,5041.97,1.0,1.0,1.0
46.5,4976.55,1.0,1.0,1.0
46.55,4774.59,1.0,1.0,1.0
46.6,4350.02,1.0,1.0,1.0
46.65,4020.53,1.0,1.0,1.0
46.7,3449.43,1.0,1.0,1.0
46.75,2932.49,1.0,1.0,1.0
46.8,2507.51,1.0,1.0,1.0
46.85,2035.58,1.0,1.0,1.0
46.9,1703.53,1.0,1.0,1.0
46.95,1365.54,1.0,1.0,1.0
47.0,1160.55,1.0,1.0,1.0
47.05,1002.0,1.0,1.0,1.0
47.1,976.0111,1.0,1.0,1.0
47.15,935.5056,1.0,1.0,1.0
47.2,1041.46,1.0,1.0,1.0
47.25,1082.98,1.0,1.0,1.0
47.3,1251.0,1.0,1.0,1.0
47.35,1424.47,1.0,1.0,1.0
47.4,1570.0,1.0,1.0,1.0
47.45,1837.45,1.0,1.0,1.0
47.5,2138.49,1.0,1.0,1.0
47.55,2600.49,1.0,1.0,1.0
47.6,3003.93,1.0,1.0,1.0
47.65,3883.49,1.0,1.0,1.0
47.7,5460.49,1.0,1.0,1.0
47.75,8495.61,1.0,1.0,1.0
47.8,15209.2,1.0,1.0,1.0
47.85,38121.9,1.0,1.0,1.0
47.9,143719,1.0,1.0,1.0
47.95,1688141.5,1.0,1.0,1.0
48.0,30049754.0,1.0,1.0,1.0
48.05,384488,1.0,1.0,1.0
48.1,58643.5,1.0,1.0,1.0
48.15,18885.8,1.0,1.0,1.0
48.2,8897.08,1.0,1.0,1.0
48.25,4550.01,1.0,1.0,1.0
48.3,2710.09,1.0,1.0,1.0
48.35,1814.55,1.0,1.0,1.0
48.4,1176.53,1.0,1.0,1.0
48.45,833.5389,1.0,1.0,1.0
48.5,599.5167,1.0,1.0,1.0
48.55,429.5167,1.0,1.0,1.0
48.6,377.4833,1.0,1.0,1.0
48.65,312.5278,1.0,1.0,1.0
48.7,233.9889,1.0,1.0,1.0
48.75,207.9889,1.0,1.0,1.0
48.8,205.9889,1.0,1.0,1.0
48.85,155.0,1.0,1.0,1.0
48.9,128.0,1.0,1.0,1.0
48.95,103.5056,1.0,1.0,1.0
49.0,82.4944,1.0,1.0,1.0
49.05,91.0,1.0,1.0,1.0
49.1,84.5056,1.0,1.0,1.0
49.15,57.5056,1.0,1.0,1.0
49.2,76.9889,1.0,1.0,1.0
49.25,45.4944,1.0,1.0,1.0
49.3,45.4944,1.0,1.0,1.0
49.35,39.0111,1.0,1.0,1.0
49.4,52.5056,1.0,1.0,1.0
49.45,57.0,1.0,1.0,1.0
49.5,43.4944,1.0,1.0,1.0
49.55,37.5056,1.0,1.0,1.0
49.6,37.0111,1.0,1.0,1.0
49.65,35.5056,1.0,1.0,1.0
49.7,26.0,1.0,1.0,1.0
49.75,40.5056,1.0,1.0,1.0
49.8,31.9889,1.0,1.0,1.0
49.85,25.5056,1.0,1.0,1.0
49.9,38.4944,1.0,1.0,1.0
49.95,35.5056,1.0,1.0,1.0
50.0,36.4944,1.0,1.0,1.0
50.05,26.0,1.0,1.0,1.0
50.1,30.5056,1.0,1.0,1.0
50.15,28.9889,1.0,1.0,1.0
50.2,17.5056,1.0,1.0,1.0
50.25,20.4944,1.0,1.0,1.0
50.3,35.0,1.0,1.0,1.0
50.35,24.0,1.0,1.0,1.0
50.4,35.0,1.0,1.0,1.0
50.45,24.5056,1.0,1.0,1.0
50.5,20.4944,1.0,1.0,1.0
50.55,24.0,1.0,1.0,1.0
50.6,24.5056,1.0,1.0,1.0
50.65,20.0,1.0,1.0,1.0
50.7,33.5056,1.0,1.0,1.0
50.75,25.0,1.0,1.0,1.0
50.8,66.5056,1.0,1.0,1.0
50.85,27.0,1.0,1.0,1.0
50.9,30.0,1.0,1.0,1.0
50.95,17.0,1.0,1.0,1.0
51.0,19.4944,1.0,1.0,1.0
51.05,19.0,1.0,1.0,1.0
51.1,26.5056,1.0,1.0,1.0
51.15,19.9889,1.0,1.0,1.0
51.2,22.0,1.0,1.0,1.0
51.25,27.0,1.0,1.0,1.0
51.3,17.5056,1.0,1.0,1.0
51.35,16.5056,1.0,1.0,1.0
51.4,22.0,1.0,1.0,1.0
51.45,19.4944,1.0,1.0,1.0
51.5,21.4944,1.0,1.0,1.0
51.55,38.4944,1.0,1.0,1.0
51.6,21.0,1.0,1.0,1.0
51.65,19.0,1.0,1.0,1.0
51.7,24.0,1.0,1.0,1.0
51.75,28.4944,1.0,1.0,1.0
51.8,23.4944,1.0,1.0,1.0
51.85,15.0,1.0,1.0,1.0
51.9,21.0,1.0,1.0,1.0
51.95,30.0,1.0,1.0,1.0
52.0,16.0,1.0,1.0,1.0
0.44,1589889.0,1.0,1.0,1.0
0.49,1688963.0,1.0,1.0,1.0
0.54,2041863.5,1.0,1.0,1.0
0.59,1711478.125,1.0,1.0,1.0
0.64,984384,1.0,1.0,1.0
0.69,512235,1.0,1.0,1.0
0.74,372129,1.0,1.0,1.0
0.79,153997,1.0,1.0,1.0
0.84,69982.0,1.0,1.0,1.0
0.89,90728,1.0,1.0,1.0
0.94,89104.5,1.0,1.0,1.0
0.99,49721,1.0,1.0,1.0
1.04,17464,1.0,1.0,1.0
1.09,13864.5,1.0,1.0,1.0
1.14,23580.498,1.0,1.0,1.0
1.19,25167.0,1.0,1.0,1.0
1.24,15856.5,1.0,1.0,1.0
1.29,5967,1.0,1.0,1.0
1.34,2755,1.0,1.0,1.0
1.39,4855.998,1.0,1.0,1.0
1.44,6963,1.0,1.0,1.0
1.49,6361.001,1.0,1.0,1.0
1.54,3741.5,1.0,1.0,1.0
1.59,1484.5,1.0,1.0,1.0
1.64,838.0001,1.0,1.0,1.0
1.69,1270,1.0,1.0,1.0
1.74,1785,1.0,1.0,1.0
1.79,1780.5,1.0,1.0,1.0
1.84,1250,1.0,1.0,1.0
1.89,754.0005,1.0,1.0,1.0
1.94,407.4998,1.0,1.0,1.0
1.99,402.9995,1.0,1.0,1.0
2.04,505.9999,1.0,1.0,1.0
2.09,553.0001,1.0,1.0,1.0
2.14,625.9999,1.0,1.0,1.0
2.19,588.0003,1.0,1.0,1.0
2.24,449.5003,1.0,1.0,1.0
2.29,340.0,1.0,1.0,1.0
2.34,287.5001,1.0,1.0,1.0
2.39,370.0,1.0,1.0,1.0
2.44,400.0,1.0,1.0,1.0
2.49,479.5002,1.0,1.0,1.0
2.54,494.0,1.0,1.0,1.0
2.59,404.0,1.0,1.0,1.0
2.64,325.4999,1.0,1.0,1.0
2.69,262.9998,1.0,1.0,1.0
2.74,309.0,1.0,1.0,1.0
2.79,387.4999,1.0,1.0,1.0
2.84,468.4996,1.0,1.0,1.0
2.89,402.4996,1.0,1.0,1.0
2.94,361.5002,1.0,1.0,1.0
2.99,232.4999,1.0,1.0,1.0
3.04,256.0004,1.0,1.0,1.0
3.09,327.4997,1.0,1.0,1.0
3.14,344.5001,1.0,1.0,1.0
3.19,328.0002,1.0,1.0,1.0
3.24,297.9999,1.0,1.0,1.0
3.29,222.5002,1.0,1.0,1.0
3.34,230.0002,1.0,1.0,1.0
3.39,270.0,1.0,1.0,1.0
3.44,267.9998,1.0,1.0,1.0
3.49,238.5001,1.0,1.0,1.0
3.54,223.4997,1.0,1.0,1.0
3.59,223.9997,1.0,1.0,1.0
3.64,253.4999,1.0,1.0,1.0
3.69,211.0003,1.0,1.0,1.0
3.74,194.0,1.0,1.0,1.0
3.79,219.0,1.0,1.0,1.0
3.84,252.0001,1.0,1.0,1.0
3.89,248.5001,1.0,1.0,1.0
3.94,226.4998,1.0,1.0,1.0
3.99,229.9998,1.0,1.0,1.0
4.04,214.4999,1.0,1.0,1.0
4.09,237.9999,1.0,1.0,1.0
4.14,225.0,1.0,1.0,1.0
4.19,232.4999,1.0,1.0,1.0
4.24,240.0,1.0,1.0,1.0
4.29,209.0001,1.0,1.0,1.0
4.34,210.9998,1.0,1.0,1.0
4.39,217.9998,1.0,1.0,1.0
4.44,203.9998,1.0,1.0,1.0
4.49,185.9999,1.0,1.0,1.0
4.5,215.0,1.0,1.0,1.0

File: 22154_SCO(CL)_XRD_2-Theta_Omega.asc
*TYPE		=  Raw
*CLASS		=  ASCII CLASS
*SAMPLE		=
*COMMENT	=
*FNAME		=  22154_SCO(CL)_XRD_2-Theta_Omega.asc
*DATE		=  21-Oct-22 09:45

*GROUP_COUNT	=  1
*GONIO		=  SmartLab(In-plane), 0.000000
*ATTACHMENT	=  Z-Phi Stage
*ASC		=  0, 0, 0.000000, 0.000000
*I_MONOCHRO	=  Ge(220)x2, 0.000000
*FILTER		=  None
*C_MONOCHRO	=  None, 0.000000
*SLIT_NAME	=  0, Incident slit
*SLIT_NAME	=  1, Receiving slit # 1
*SLIT_NAME	=  2, Receiving slit # 2
*COUNTER	=  D/teX Ultra 250, 0
*POS_FORMAT	=  0
*SCAN_AXIS	=  2Theta/Omega
*MEAS_MODE	=  Continuous Scanning
*TARGET		=  29
*XRAY_CHAR	=  K-ALPHA1
*WAVE_LENGTH1	=  1.54059
*WAVE_LENGTH2	=  1.54441
*THICKNESS	=  0, 0.000000
*MU		=  0, 0.000000
*SCAN_MODE	=  2Theta/Omega
*SPEED_DIM	=  sec./step
*XUNIT		=  deg.
*YUNIT		=  counts
*SCALE_MODE	=  1
*REP_COUNT	=  0
*SE_COUNT	=  0
*STD_MATERIAL	=  Unknown, Unknown, 0.000000, 0.000000, 0.000000, 0.000000, 0.000000, 0.000000
*LATT_CONS	=  0, Unknown, Unknown, 0.000000, 0.000000, 0.000000, 0.000000, 0.000000, 0.000000
*SEC_COUNT	=  2
*TSPEC_SIZE	=  0
*EXTRA_SIZE	=  0
*MEMO		=

*BEGIN
*GROUP		=  0
*START		=  42
*STOP		=  52
*STEP		=  0.01
*OFFSET		=  0.0149
*SPEED		=  49.9584
*SLIT_SPEC	=  0, 0.400mm, 0.4, 0.000000
*SLIT_SPEC	=  1, 0.400mm, 0.4, 0.000000
*SLIT_SPEC	=  2, 0.400mm, 0.4, 0.000000
*KV		=  40
*MA		=  30
*LOW		=  0.000000
*HIGH		=  0.000000
*CTEMPER	=  0, 0.000000
*CTEMPER	=  1, 0.000000
*CTEMPER	=  2, 0.000000
*PAREX		=  0, 0.000000
*PAREX		=  1, 0.000000
*PAREX		=  2, 0.000000
*PAREX		=  3, 0.000000
*PAREX		=  4, 0.000000
*PAREX		=  5, 0.000000
*PAREX		=  6, 0.000000
*PAREX		=  7, 0.000000
*PAREX		=  8, 0.000000
*PAREX		=  9, 0.000000
*PAREX		=  10, 0.000000
*PAREX		=  11, 0.000000
*PAREX		=  12, 0.000000
*PAREX		=  13, 0.000000
*PAREX		=  14, 0.000000
*PAREX		=  15, 0.000000
*FULL_SCALE	=  861853
*INDEX		=  0, 0, 0
*COUNT		=  1001
28.5056, 24.4944, 11.5056, 19
27, 12.4944, 28.9667, 38.5389
19, 20, 8, 23
16.9889, 23.0111, 15.4944, 13.5056
21, 25, 18.9889, 25.0111
15, 19, 27, 25
29.4944, 15.5056, 6.49445, 26.5056
32, 32, 22, 24
19, 11, 32, 13.4944
24.5056, 38, 21.4944, 23.5056
25.9889, 23.0111, 25.4944, 20
8, 16.5056, 17, 21
31, 29.9889, 22, 25.0111
25.4944, 19.5056, 19, 22
31.9889, 31.5056, 24.5056, 18
51.9889, 32.0111, 27.4944, 17.5056
34.4833, 28.5167, 16.4944, 28.5056
31, 35, 30, 13.4944
17.5056, 22, 36, 17
31.9889, 21.0111, 20, 25
27, 22.9889, 51.0111, 26
27, 32.9889, 38.0111, 32
40.4944, 20.5056, 32, 28.4944
20.4944, 16.5056, 27.5056, 25
27, 36, 38, 19.4944
34, 28.5056, 27, 22
31, 34.9889, 25.0111, 26
31, 41.4944, 37, 37
32.5056, 36, 23, 30
35, 36, 32, 31.4944
21, 34, 26, 26.5056
37, 21, 22, 44
31, 24, 35, 23
29, 47, 23.4944, 31
126.506, 25, 34, 40.4944
36, 23.5056, 24, 26
21.4944, 30.4944, 32.5056, 23.5056
31.9889, 31, 32, 12.0111
47.4944, 25.5056, 44, 26.4944
31.4944, 44.5056, 23.9778, 15.5278
31, 32, 33.4833, 30.5167
21, 38, 38.4944, 30.5056
39, 25.9889, 24.5056, 35.5056
30.4944, 20.5056, 36, 18
30.9889, 33.0111, 32, 26
26.4944, 25.5056, 16, 19
19, 41.4944, 28.5056, 18
23, 17.4944, 35.5056, 25
26, 12, 38, 30
33, 14, 10, 29.9889
26.5056, 25, 20.5056, 31.4944
47, 34.4944, 29.5056, 28.5056
33, 26, 24, 25.9889
53.0111, 27.4944, 26.4944, 42.5056
40.5056, 45, 55, 48
25.4944, 42.5056, 36, 53.4944
40, 44.5056, 34, 32.9889
32.0111, 46, 58, 43.9889
64, 45, 52, 45.5056
53.5056, 49, 39.9778, 64.5056
52.5167, 82.4944, 56.4944, 63
73, 61, 63.0111, 67.9889
78.5056, 86.5056, 83.4833, 103.506
112.494, 96.5167, 102.978, 96.4944
130.517, 85.5056, 126.989, 96.0111
97.4944, 125, 105.011, 124.989
149.989, 146.506, 119.506, 127.989
136.011, 155, 146.989, 150.989
164.517, 154, 161.989, 180.494
180.517, 193.011, 174.494, 221.989
185.483, 198.033, 191.967, 225.011
223.989, 205.022, 184, 250.978
254.517, 236.989, 271.011, 275.956
268.033, 275, 279.528, 285.472
334.483, 325.022, 323.494, 331.506
313.472, 364, 338.517, 334.011
358.506, 398.967, 415.539, 365.989
367.494, 409.483, 415.011, 422.967
430.472, 500.539, 472.506, 486.506
508.011, 455.494, 504, 442.483
556.494, 557.517, 527.494, 596.483
560.528, 560.989, 621.967, 565.022
616.967, 650.528, 647.528, 660.45
690.033, 722.494, 628.494, 702.483
731.528, 705.989, 742.978, 764.011
710.978, 793.561, 749.944, 851.033
819.956, 877.011, 818.011, 871.967
809.528, 876.967, 905.078, 894.45
910.022, 898.978, 970.989, 974.517
979.933, 988.033, 1076.49, 1120.56
1088.44, 1097.03, 1129.87, 1166.59
1065, 1101.55, 1148.92, 1182.55
1170.97, 1154.53, 1278.45, 1238.56
1316.46, 1338.02, 1234.96, 1334.56
1359.98, 1421.94, 1459.07, 1487.51
1500.98, 1623.45, 1500.53, 1616.49
1692.53, 1574.45, 1689.06, 1775.41
1765.55, 1793.98, 1821, 1830.51
1972.99, 2035.02, 2052.92, 2098
1997.01, 2049.02, 2122.99, 2194
2368.51, 2270.99, 2124.53, 2245.98
2291.97, 2375.06, 2494.92, 2390.55
2615.98, 2480.48, 2517.52, 2562.53
2674.43, 2730.51, 2858.49, 2911.94
2891.63, 2911.35, 3078.55, 3106.02
3212.99, 3323.42, 3387.01, 3477.51
3461.46, 3620.58, 3624.43, 3900.13
3952.38, 3973.93, 3931.51, 4273.09
4111.47, 4440.96, 4340.49, 4518.89
4588.07, 4630.04, 4654.94, 4729.98
4857.99, 4961.94, 4840.12, 4862.48
4961.91, 5041.97, 5020, 4981.04
4984.65, 4861.88, 4976.55, 5097.44
5024.55, 5031.99, 4840.89, 4774.59
4634.62, 4627.35, 4562.11, 4463.97
4350.02, 4295.48, 4277.08, 4110.91
3873.51, 4020.53, 3845.14, 3744.45
3713.03, 3409.02, 3449.43, 3412.52
3310.07, 3040.48, 3049.49, 2932.49
2811.54, 2686.03, 2688.51, 2538.51
2507.51, 2421.99, 2258.03, 2201.01
2165, 2035.58, 2000.96, 1900
1854.49, 1850.46, 1703.53, 1616.58
1544.44, 1511.51, 1460.47, 1365.54
1330.03, 1320.01, 1277.49, 1226.98
1160.55, 1138.93, 1130.54, 1032.46
1085.52, 1002, 990.528, 992.506
1022.04, 936.956, 976.011, 911.506
936.956, 958.011, 972.517, 935.506
987.483, 982.472, 1010.54, 965.528
1041.46, 1101, 991.506, 1061.49
1066.51, 1082.98, 1135.47, 1190.08
1194.99, 1161.41, 1251, 1276.06
1319.48, 1239.54, 1375.44, 1424.47
1459.55, 1480.99, 1500.97, 1545.53
1570, 1587.01, 1660.89, 1684.08
1723.47, 1837.45, 1899.03, 1917.01
2036.97, 2060.06, 2138.49, 2214.96
2233.52, 2338.38, 2217.58, 2600.49
2550, 2664.03, 2719.91, 2949.47
3003.93, 3189.57, 3491.37, 3554.04
3581.03, 3883.49, 4180.96, 4455.93
4688.96, 5050.49, 5460.49, 5695.39
6276.99, 6745.86, 7433.35, 8495.61
9409.57, 10489.1, 11607.9, 13274.3
15209.2, 17791.3, 21056.9, 25010.3
30262.3, 38121.9, 48078.1, 62040.8
80394.3, 106205, 143719, 199878
289846, 439331, 722743, 1688141.5
8545320, 22793234, 31314806, 34584904
30049754, 14340137, 9554620, 4582317.5
982106, 384488, 237536, 159940
111944, 79772.7, 58643.5, 45015.1
35020.3, 28151.4, 23289.7, 18885.8
15858.3, 13427.3, 11660.6, 10175.7
8897.08, 7484.67, 6488.01, 5863.1
5229.1, 4550.01, 4193.18, 3687.93
3299.07, 3100.48, 2710.09, 2560.98
2356.56, 2187.99, 2031.53, 1814.55
1656, 1378.53, 1325.98, 1336.48
1176.53, 1080.49, 1007.51, 960.022
842.483, 833.539, 743, 735.011
630.978, 623.022, 599.517, 611.978
535.517, 516.989, 508.517, 429.517
370, 393.494, 425.528, 394.978
377.483, 344.528, 361.483, 374.506
314.967, 312.528, 308.506, 252.022
263.483, 238.517, 233.989, 243.022
219.978, 201, 189.011, 207.989
189.978, 154.528, 195.506, 178.506
205.989, 171.517, 143.494, 164
176, 155, 126.989, 172.506
145.989, 104.506, 128, 118.506
111.506, 121.989, 100.494, 103.506
120.517, 89.4944, 91, 108.494
82.4944, 117.011, 79.0111, 92.4944
83.9889, 91, 63.4944, 84.0111
[...]
21, 21, 22, 10
14, 19, 20.4944, 33.5056
25, 25, 24, 21
29, 8, 29, 28.4944
20.9778, 22.0111, 21.5167, 13
23.4944, 42, 26.5056, 16
18, 15, 14.4944, 25.5056
30, 22, 21, 24
21, 35, 16, 30
8, 16.4944, 15, 25.5056
16
*END

*BEGIN
*GROUP		=  0
*START		=  0.4
*STOP		=  4.5
*STEP		=  0.01
*OFFSET		=  0.0149
*SPEED		=  11.9584
*SLIT_SPEC	=  0, 1.000mm, 1, 0.000000
*SLIT_SPEC	=  1, 1.000mm, 1, 0.000000
*SLIT_SPEC	=  2, 1.000mm, 1, 0.000000
*KV		=  40
*MA		=  30
*LOW		=  0.000000
*HIGH		=  0.000000
*CTEMPER	=  0, 0.000000
*CTEMPER	=  1, 0.000000
*CTEMPER	=  2, 0.000000
*PAREX		=  0, 0.000000
*PAREX		=  1, 0.000000
*PAREX		=  2, 0.000000
*PAREX		=  3, 0.000000
*PAREX		=  4, 0.000000
*PAREX		=  5, 0.000000
*PAREX		=  6, 0.000000
*PAREX		=  7, 0.000000
*PAREX		=  8, 0.000000
*PAREX		=  9, 0.000000
*PAREX		=  10, 0.000000
*PAREX		=  11, 0.000000
*PAREX		=  12, 0.000000
*PAREX		=  13, 0.000000
*PAREX		=  14, 0.000000
*PAREX		=  15, 0.000000
*FULL_SCALE	=  210329
*INDEX		=  0, 0, 0
*COUNT		=  411
1479944.5, 1508963.5, 1539180.3, 1612482.6
1589889, 1611739.5, 1635762, 1657427.5
1674577.5, 1688963, 1703140, 1783890.6
2070489.5, 2063487, 2041863.5, 2010300
1960724.6, 1893116.6, 1809034.1, 1711478.1
1594154.1, 1457523.6, 1309120.8, 1145970.6
984384, 833495, 705600, 615802
551822, 512235, 484279, 460296
436251, 409294, 372129, 329271
281893, 235736, 192534, 153997
122397, 98702.5, 82306.5, 73352.5
69982, 71209, 74909, 80095.5
86017.5, 90728, 94315, 96294
96214.5, 93991, 89104.5, 83373
75630, 67076, 58122, 49721
41181, 33595, 27029, 21418
17464, 14280, 12868.5, 12227.5
12674.5, 13864.5, 15632, 17505
19799, 21940.5, 23580.5, 24651
25308.5, 25986, 25895, 25167
24063, 22578, 20355, 18271.5
15856.5, 13876.5, 11675.5, 9611
7653.5, 5967, 4857, 4078
3225.5, 3016, 2755, 2850.5
3229, 3728.5, 4244, 4856
5370.5, 5953, 6471.5, 6753
6963, 7155, 7152.5, 7036
6657.5, 6361, 5943, 5353
4765.5, 4209, 3741.5, 3160
2698, 2192.5, 1866.5, 1484.5
1220.5, 1046.5, 869.5, 878.5
838, 941.5, 960.5, 1056.5
1172.5, 1270, 1482, 1553
1725.5, 1789.5, 1785, 1685
1880, 1784, 1869, 1780.5
1747.5, 1535, 1464, 1397
1250, 1160.5, 1040.5, 927.5
810.5, 754.001, 626, 601.5
539, 474.5, 407.5, 432.5
375.5, 373, 371, 402.999
426.5, 458, 396, 455.5
506, 508, 521.5, 550.5
599.5, 553, 599, 566
639, 625.5, 626, 643.5
646.5, 586.001, 574.499, 588
556, 553, 492, 520
449.5, 386.5, 370.5, 391
340.5, 340, 336, 323
335, 307.5, 287.5, 308.5
311, 303, 277.5, 370
378, 340, 356, 463
400, 442, 481, 494
457.5, 479.5, 513.5, 549.5
510.5, 542, 494, 491
415, 453, 417, 404
335, 377.5, 346.5, 337.5
325.5, 316, 312, 300
313.5, 263, 263, 271.5
303, 306.5, 309, 326.5
359.5, 397, 428, 387.5
422, 471, 411, 428
468.5, 396.5, 421.5, 404
411.5, 402.5, 382, 366.5
358.5, 349, 361.5, 275.5
301, 257, 280.5, 232.5
259.5, 277, 251.5, 277
256, 252, 289.5, 259.5
281.5, 327.5, 314, 297
316.5, 308, 344.5, 327.5
374.5, 325.5, 341.5, 328
300.5, 282, 316.5, 326
298, 297.5, 244, 226.5
258, 222.5, 211, 217.5
238, 222.5, 230, 232.5
213, 243, 234, 270
206, 236.5, 247.5, 260
268, 265.001, 261, 243
264, 238.5, 272, 309.5
258, 248.5, 223.5, 230.5
230.5, 262.5, 254.5, 224
234, 208, 239.5, 213.5
253.5, 217, 223, 233
192.5, 211, 213.5, 164.5
253, 217, 194, 221
259.5, 237.5, 244, 219
249, 260.5, 231.5, 214.5
252, 263.5, 211, 247
191, 248.5, 225.5, 229
225.5, 210, 226.5, 218
204.5, 232, 223, 230
234.5, 202, 199, 205
214.5, 225.5, 219.5, 184.5
238.5, 238, 200.5, 230
226, 253, 225, 208.5
220.5, 220.5, 204.5, 232.5
228.5, 244.5, 254, 229.5
240, 210.5, 199.5, 197
260.5, 209, 226, 241.5
198.5, 199.5, 211, 178.5
233, 228, 181.5, 218
218.5, 237.5, 215.5, 229.5
204, 197.5, 249.5, 181
228, 186, 215
*END

*EOF