Folder: Analysis/XRD:XRR/SCO/22167_SL(CO)L (part 2)

File: 22167_SL(CO)L_XRD_2-Theta_Omega.asc
*TYPE		=  Raw
*CLASS		=  ASCII CLASS
*SAMPLE		=
*COMMENT	=
*FNAME		=  22167_SL(CO)L_XRD_2-Theta_Omega.asc
*DATE		=  08-Dec-22 03:07

*GROUP_COUNT	=  1
*GONIO		=  SmartLab(In-plane), 0.000000
*ATTACHMENT	=  Z-Phi Stage
*ASC		=  0, 0, 0.000000, 0.000000
*I_MONOCHRO	=  Ge(220)x2, 0.000000
*FILTER		=  None
*C_MONOCHRO	=  None, 0.000000
*SLIT_NAME	=  0, Incident slit
*SLIT_NAME	=  1, Receiving slit # 1
*SLIT_NAME	=  2, Receiving slit # 2
*COUNTER	=  D/teX Ultra 250, 0
*POS_FORMAT	=  0
*SCAN_AXIS	=  2Theta/Omega
*MEAS_MODE	=  Continuous Scanning
*TARGET		=  29
*XRAY_CHAR	=  K-ALPHA1
*WAVE_LENGTH1	=  1.54059
*WAVE_LENGTH2	=  1.54441
*THICKNESS	=  0, 0.000000
*MU		=  0, 0.000000
*SCAN_MODE	=  2Theta/Omega
*SPEED_DIM	=  sec./step
*XUNIT		=  deg.
*YUNIT		=  counts
*SCALE_MODE	=  1
*REP_COUNT	=  0
*SE_COUNT	=  0
*STD_MATERIAL	=  Unknown, Unknown, 0.000000, 0.000000, 0.000000, 0.000000, 0.000000, 0.000000
*LATT_CONS	=  0, Unknown, Unknown, 0.000000, 0.000000, 0.000000, 0.000000, 0.000000, 0.000000
*SEC_COUNT	=  1
*TSPEC_SIZE	=  0
*EXTRA_SIZE	=  0
*MEMO		=

*BEGIN
*GROUP		=  0
*START		=  40
*STOP		=  54
*STEP		=  0.01
*OFFSET		=  -0.108200
*SPEED		=  22.1803
*SLIT_SPEC	=  0, 0.600mm, 0.6, 0.000000
*SLIT_SPEC	=  1, 0.600mm, 0.6, 0.000000
*SLIT_SPEC	=  2, 0.600mm, 0.6, 0.000000
*KV		=  40
*MA		=  30
*LOW		=  0.000000
*HIGH		=  0.000000
*CTEMPER	=  0, 0.000000
*CTEMPER	=  1, 0.000000
*CTEMPER	=  2, 0.000000
*PAREX		=  0, 0.000000
*PAREX		=  1, 0.000000
*PAREX		=  2, 0.000000
*PAREX		=  3, 0.000000
*PAREX		=  4, 0.000000
*PAREX		=  5, 0.000000
*PAREX		=  6, 0.000000
*PAREX		=  7, 0.000000
*PAREX		=  8, 0.000000
*PAREX		=  9, 0.000000
*PAREX		=  10, 0.000000
*PAREX		=  11, 0.000000
*PAREX		=  12, 0.000000
*PAREX		=  13, 0.000000
*PAREX		=  14, 0.000000
*PAREX		=  15, 0.000000
*FULL_SCALE	=  2377375.3
*INDEX		=  0, 0, 0
*COUNT		=  1401
51.0111, 74, 46.4944, 47.4944
48.9889, 65.0111, 56.9889, 49.0111
53.0111, 57.9889, 59.5167, 61.4944
50.4944, 51, 50, 45.5056
74.9778, 49.0222, 54, 61.9889
61.4944, 51.4944, 53, 66.5056
49, 47.4944, 65.5056, 68.4944
56.0111, 49.0111, 48.4944, 53.4944
59.5056, 71, 51, 62.0111
38.5056, 53, 68.4944, 66.5056
44.9889, 56.4944, 52.5167, 57.9889
62.4944, 56.5056, 44.4944, 85.4944
54.4944, 61.5167, 56, 54.9889
63, 36.5056, 38, 58.4833
60.9889, 56.5167, 71.4944, 51.4944
65, 66, 38.9889, 74
53, 37.4944, 70.5056, 46.9889
39.9889, 67.5056, 53, 54.5056
65, 57.4944, 34.5056, 50.4833
51.4944, 51.0111, 48.4944, 55.0111
65.0111, 66, 68, 68
62.9889, 56.5056, 55.9889, 51.0111
41, 68.5056, 64.9889, 67
54, 39, 51.5056, 38.9889
59.5167, 55.4944, 56, 48
68, 37, 67.0111, 50
71.9889, 46.5167, 52.4944, 64.5056
42.0111, 59.9889, 73.0111, 48
56.4944, 55.4944, 68.5056, 60
56, 39.4944, 63.5056, 72
60.5056, 63, 66, 38.4944
70.9889, 55.4944, 67.5056, 52.5167
57.5167, 53.5056, 57, 65.4944
48.0222, 67, 79.9889, 68
63.4944, 72, 69.4944, 60.0111
74.5167, 78.4944, 91, 98.9889
78, 80, 57.4944, 95.5056
93.9889, 94.5056, 103, 94.5056
104.483, 118, 109, 113.494
113, 98, 130.494, 123
133, 139.978, 112.022, 120.494
110.022, 121.494, 99.4833, 132.022
91.4944, 99.5056, 107.483, 104
93, 89, 92, 91.4944
88.5056, 102.483, 108.528, 102
102, 90.5056, 82.4833, 98
87.4944, 71.5056, 77.4833, 66.4833
90.4833, 77.0111, 64, 79
57.9889, 68.0111, 60.9889, 73.4944
81, 69.4944, 77.0111, 77.4944
82.5056, 69.5056, 77.9889, 93
90, 94.5056, 111.506, 79.4833
142, 144, 156.506, 194.494
187.494, 193.506, 207.989, 224.528
226.517, 219.483, 213.517, 245.506
259.011, 250.967, 231.539, 252
235.956, 198.539, 200.022, 209.472
165.461, 202.517, 187.011, 210.494
232.494, 281.517, 293.494, 272.494
273.989, 294.978, 340.494, 334
308.011, 334.506, 305.989, 338.483
476.461, 446.967, 478.067, 477.472
612.483, 685.506, 717, 718
1061.99, 1157.01, 1311.44, 1325.52
1831.48, 1988.52, 2029.98, 2269.99
2848.48, 3074.02, 3209.87, 3330.07
4087.42, 4249.57, 4304.55, 4556.79
4965.17, 4863.02, 5091.79, 4938.51
4845.55, 4852.46, 4541.04, 4629.38
3878.9, 3825.98, 3671, 3647.07
3225.55, 3109.02, 3079.53, 3124.87
3328.98, 3288.99, 3381.02, 3496.92
3388.34, 3319.17, 3377, 3210.43
2618.91, 2557.93, 2598.06, 2545.48
2380.07, 2330.08, 2456.93, 2464.96
2925.55, 2963.45, 3180.42, 3261.93
4503.42, 4801.45, 5071.04, 5370.99
7466.51, 7765.31, 8343.03, 8952.44
11813.4, 12548.3, 13053.7, 13411.7
17008.9, 17641.2, 18242.2, 18882.3
21768.2, 22123.5, 22361.3, 22526.8
23095.3, 22580.5, 22685.5, 22480
20375.4, 19507.2, 19145.6, 18249.5
15229.1, 15001, 14492, 14002.1
12803.5, 12339, 12317.5, 12341.9
11886, 11891.5, 11633, 11588
10345.1, 9856.2, 9678.43, 8919.91
7201.53, 6764.01, 6337.01, 6055.66
4555.96, 4324.52, 4156.1, 3928.49
2964.98, 2768.57, 2799.54, 2470.98
2064.06, 1974.49, 1816.54, 1800.46
1364.09, 1321.47, 1249.52, 1175.99
988.539, 882.517, 814.506, 800.417
823.989, 891.022, 936.933, 1022.52
1637.54, 1873.38, 2078.48, 2339.02
3682.91, 3956.47, 4191.96, 4505.96
6124.42, 6372.92, 6650.46, 6986.42
9136.48, 10080, 10822.9, 12070.8
29079.7, 35178.8, 43220.5, 53583.8
223860, 352095, 695254, 1361261.6
1792856, 862305, 525195, 349031
70630.2, 53796.8, 41111.5, 31585.9
10615.9, 8721.75, 7189.71, 6015.02
3080.65, 2835.45, 2488.04, 2219.06
1462.52, 1424, 1303.51, 1224.51
973.011, 837.989, 907.033, 861.989
753.989, 697.528, 693.483, 676.022
666.517, 680.539, 682.967, 600.494
563.472, 603.056, 548.494, 570
502.011, 484.506, 440.494, 487.483
384.022, 369.494, 385.956, 354.528
403.011, 336.494, 382.517, 352.494
325.967, 300.539, 349.978, 338.011
258.506, 262.506, 290.989, 229
215, 211.494, 202, 205.528
159.506, 164.978, 165.506, 151.528
142.494, 141, 127.011, 100.989
106.978, 103, 100.517, 92.4944
98.5056, 85.0111, 120.506, 119.989
102.989, 86, 87.5056, 93
75.0111, 88, 79.4944, 80.5056
80, 72.0111, 70.4944, 68.0111
61.4944, 72.9889, 84.0111, 72.9889
86.4944, 74.5056, 59.5056, 53.9889
78.9889, 77, 78.5056, 77.5056
92, 57.4944, 51, 67.0111
58.5056, 46.4944, 66, 63
60.5056, 62.0111, 66.4944, 64
51.4944, 59, 49, 53
55.0111, 45, 49.9889, 68
74.5056, 54.4944, 47.5056, 55.4944
51.4944, 59.5056, 60.9889, 66.0111
57.5056, 62, 59, 42.9889
63, 35.9889, 66.0111, 66.5056
62.9889, 53.5056, 59.4944, 47.4944
59, 65, 37.9889, 47.0111
47.5056, 48.4944, 45, 55
37.9889, 48.4944, 59.0111, 47
52.5056, 30, 57.4944, 61
70, 43.4944, 41.5056, 44.9889
72.4944, 35, 44.4944, 44.0111
36, 44.9889, 55.5167, 51
73.4944, 47.0111, 49, 46.9889
51, 49, 57.5056, 41
49.4944, 38.4944, 55, 56.0111
53.4944, 56.9889, 44.5167, 47
37.5056, 46.4944, 47.4944, 39.0111
52, 55.9889, 58.0111, 63
46.9889, 46.0111, 59.9889, 34.0111
48, 43.9889, 38.0111, 44.4944
35.4833, 52.5167, 46, 47.4944
30, 33.4944, 44.5056, 49
64, 42, 44.4944, 53.5056
36, 30, 30.9889, 54.0111
30.9889, 19, 53.0111, 29
45.9889, 64.0111, 41, 39.4944
36.9889, 45.0111, 34.4944, 43
42, 38, 44.4944, 41.9889
29, 34, 37.4944, 29
37.5056, 29.9889, 47.5056, 41
45, 32.5056, 33, 48
39, 43, 41.9889, 43.5056
30, 40.9889, 44, 55.5056
33.5056, 46.5056, 43, 37.4944
39.9778, 42.5167, 38.4944, 50.0111
53.5056, 23, 34, 32
33, 34.0111, 37, 11.4944
34.4944, 34.0111, 37, 23.4944
44.9889, 40.0111, 45.9889, 49.0111
26, 38.4944, 24, 30
45, 44, 29, 50.4944
31, 50.9889, 48.5056, 34.4944
41, 31.4944, 43.5056, 26.9889
44, 44, 52, 30.4944
45.5056, 32, 43, 45
41
*END

*EOF