Folder: Analysis/XRD:XRR/SCO/22166_SL(CO)L

File: 22166_SL(CO)L_002_XRD.csv
#twotheta, yobs, ycal, bkg, diff
40.0,7.0,1.0,1.0,1.0
40.05,3.0,1.0,1.0,1.0
40.1,5.0,1.0,1.0,1.0
40.15,9.4944,1.0,1.0,1.0
40.2,5.0,1.0,1.0,1.0
40.25,11.0,1.0,1.0,1.0
40.3,8.0,1.0,1.0,1.0
40.35,2.0,1.0,1.0,1.0
40.4,8.5056,1.0,1.0,1.0
40.45,18.0,1.0,1.0,1.0
40.5,9.0,1.0,1.0,1.0
40.55,3.0,1.0,1.0,1.0
40.6,9.0,1.0,1.0,1.0
40.65,13.0,1.0,1.0,1.0
40.7,9.0,1.0,1.0,1.0
40.75,4.0,1.0,1.0,1.0
40.8,11.0,1.0,1.0,1.0
40.85,6.0,1.0,1.0,1.0
40.9,7.0,1.0,1.0,1.0
40.95,11.0,1.0,1.0,1.0
41.0,14.0,1.0,1.0,1.0
41.05,0.0,1.0,1.0,1.0
41.1,5.0,1.0,1.0,1.0
41.15,5.0,1.0,1.0,1.0
41.2,7.0,1.0,1.0,1.0
41.25,3.0,1.0,1.0,1.0
41.3,8.4944,1.0,1.0,1.0
41.35,2.0,1.0,1.0,1.0
41.4,11.0,1.0,1.0,1.0
41.45,7.4944,1.0,1.0,1.0
41.5,16.0,1.0,1.0,1.0
41.55,12.5056,1.0,1.0,1.0
41.6,4.0,1.0,1.0,1.0
41.65,10.0,1.0,1.0,1.0
41.7,13.0,1.0,1.0,1.0
41.75,12.0,1.0,1.0,1.0
41.8,10.0,1.0,1.0,1.0
41.85,11.0,1.0,1.0,1.0
41.9,5.0,1.0,1.0,1.0
41.95,14.5056,1.0,1.0,1.0
42.0,13.0,1.0,1.0,1.0
42.05,13.0,1.0,1.0,1.0
42.1,9.0,1.0,1.0,1.0
42.15,6.0,1.0,1.0,1.0
42.2,9.0,1.0,1.0,1.0
42.25,4.0,1.0,1.0,1.0
42.3,4.0,1.0,1.0,1.0
42.35,6.5056,1.0,1.0,1.0
42.4,9.0,1.0,1.0,1.0
42.45,3.0,1.0,1.0,1.0
42.5,1.4944,1.0,1.0,1.0
42.55,13.5056,1.0,1.0,1.0
42.6,5.0,1.0,1.0,1.0
42.65,4.0,1.0,1.0,1.0
42.7,9.0,1.0,1.0,1.0
42.75,3.0,1.0,1.0,1.0
42.8,6.5056,1.0,1.0,1.0
42.85,15.0,1.0,1.0,1.0
42.9,4.5056,1.0,1.0,1.0
42.95,6.4944,1.0,1.0,1.0
43.0,10.5056,1.0,1.0,1.0
43.05,8.0,1.0,1.0,1.0
43.1,0.0,1.0,1.0,1.0
43.15,5.0,1.0,1.0,1.0
43.2,9.5056,1.0,1.0,1.0
43.25,9.0,1.0,1.0,1.0
43.3,4.0,1.0,1.0,1.0
43.35,10.0,1.0,1.0,1.0
43.4,7.5056,1.0,1.0,1.0
43.45,15.0,1.0,1.0,1.0
43.5,15.0,1.0,1.0,1.0
43.55,14.0,1.0,1.0,1.0
43.6,14.0,1.0,1.0,1.0
43.65,6.0,1.0,1.0,1.0
43.7,6.0,1.0,1.0,1.0
43.75,10.0,1.0,1.0,1.0
43.8,10.0,1.0,1.0,1.0
43.85,15.0,1.0,1.0,1.0
43.9,10.0,1.0,1.0,1.0
43.95,25.5056,1.0,1.0,1.0
44.0,16.0,1.0,1.0,1.0
44.05,24.0,1.0,1.0,1.0
44.1,25.0,1.0,1.0,1.0
44.15,27.9889,1.0,1.0,1.0
44.2,24.0,1.0,1.0,1.0
44.25,26.0,1.0,1.0,1.0
44.3,36.0111,1.0,1.0,1.0
44.35,31.5056,1.0,1.0,1.0
44.4,34.5278,1.0,1.0,1.0
44.45,31.5056,1.0,1.0,1.0
44.5,23.0,1.0,1.0,1.0
44.55,46.0111,1.0,1.0,1.0
44.6,41.0,1.0,1.0,1.0
44.65,39.4944,1.0,1.0,1.0
44.7,63.0,1.0,1.0,1.0
44.75,39.5167,1.0,1.0,1.0
44.8,57.4944,1.0,1.0,1.0
44.85,75.9889,1.0,1.0,1.0
44.9,58.4944,1.0,1.0,1.0
44.95,85.0,1.0,1.0,1.0
45.0,83.5167,1.0,1.0,1.0
45.05,103.0,1.0,1.0,1.0
45.1,100.0111,1.0,1.0,1.0
45.15,128.5056,1.0,1.0,1.0
45.2,120.0,1.0,1.0,1.0
45.25,120.9778,1.0,1.0,1.0
45.3,121.0111,1.0,1.0,1.0
45.35,136.0111,1.0,1.0,1.0
45.4,166.0,1.0,1.0,1.0
45.45,174.9889,1.0,1.0,1.0
45.5,212.4944,1.0,1.0,1.0
45.55,192.9778,1.0,1.0,1.0
45.6,204.5056,1.0,1.0,1.0
45.65,220.0,1.0,1.0,1.0
45.7,233.4833,1.0,1.0,1.0
45.75,293.0111,1.0,1.0,1.0
45.8,281.0222,1.0,1.0,1.0
45.85,322.0111,1.0,1.0,1.0
45.9,334.9889,1.0,1.0,1.0
45.95,375.4944,1.0,1.0,1.0
46.0,401.0,1.0,1.0,1.0
46.05,448.4833,1.0,1.0,1.0
46.1,441.0444,1.0,1.0,1.0
46.15,508.5389,1.0,1.0,1.0
46.2,548.5278,1.0,1.0,1.0
46.25,639.9889,1.0,1.0,1.0
46.3,597.0111,1.0,1.0,1.0
46.35,686.9778,1.0,1.0,1.0
46.4,761.0222,1.0,1.0,1.0
46.45,848.5167,1.0,1.0,1.0
46.5,860.0222,1.0,1.0,1.0
46.55,983.4833,1.0,1.0,1.0
46.6,1052.54,1.0,1.0,1.0
46.65,1127.02,1.0,1.0,1.0
46.7,1174.53,1.0,1.0,1.0
46.75,1355.56,1.0,1.0,1.0
46.8,1431.02,1.0,1.0,1.0
46.85,1550.46,1.0,1.0,1.0
46.9,1664.99,1.0,1.0,1.0
46.95,1681.98,1.0,1.0,1.0
47.0,1742.55,1.0,1.0,1.0
47.05,1675.52,1.0,1.0,1.0
47.1,1854.98,1.0,1.0,1.0
47.15,1841.96,1.0,1.0,1.0
47.2,1914.49,1.0,1.0,1.0
47.25,1942.56,1.0,1.0,1.0
47.3,1977.02,1.0,1.0,1.0
47.35,1781.97,1.0,1.0,1.0
47.4,1650.55,1.0,1.0,1.0
47.45,1609.39,1.0,1.0,1.0
47.5,1680.46,1.0,1.0,1.0
47.55,1966.0,1.0,1.0,1.0
47.6,2498.45,1.0,1.0,1.0
47.65,3226.91,1.0,1.0,1.0
47.7,4059.97,1.0,1.0,1.0
47.75,5434.94,1.0,1.0,1.0
47.8,9342.76,1.0,1.0,1.0
47.85,25528.8,1.0,1.0,1.0
47.9,652499,1.0,1.0,1.0
47.95,4259882.0,1.0,1.0,1.0
48.0,1938807.625,1.0,1.0,1.0
48.05,115289,1.0,1.0,1.0
48.1,26997.1,1.0,1.0,1.0
48.15,7831.71,1.0,1.0,1.0
48.2,3250.21,1.0,1.0,1.0
48.25,1686.0,1.0,1.0,1.0
48.3,971.0333,1.0,1.0,1.0
48.35,667.4833,1.0,1.0,1.0
48.4,440.0333,1.0,1.0,1.0
48.45,324.5056,1.0,1.0,1.0
48.5,233.5167,1.0,1.0,1.0
48.55,197.9889,1.0,1.0,1.0
48.6,153.5167,1.0,1.0,1.0
48.65,99.0,1.0,1.0,1.0
48.7,100.4833,1.0,1.0,1.0
48.75,102.9889,1.0,1.0,1.0
48.8,61.4944,1.0,1.0,1.0
48.85,58.4944,1.0,1.0,1.0
48.9,65.5056,1.0,1.0,1.0
48.95,37.0,1.0,1.0,1.0
49.0,26.9778,1.0,1.0,1.0
49.05,31.0,1.0,1.0,1.0
49.1,38.0,1.0,1.0,1.0
49.15,54.4944,1.0,1.0,1.0
49.2,46.0,1.0,1.0,1.0
49.25,16.0,1.0,1.0,1.0
49.3,29.5056,1.0,1.0,1.0
49.35,29.0,1.0,1.0,1.0
49.4,20.0,1.0,1.0,1.0
49.45,15.0,1.0,1.0,1.0
49.5,23.4944,1.0,1.0,1.0
49.55,9.0,1.0,1.0,1.0
49.6,13.0,1.0,1.0,1.0
49.65,16.0,1.0,1.0,1.0
49.7,29.4944,1.0,1.0,1.0
49.75,12.0,1.0,1.0,1.0
49.8,5.0,1.0,1.0,1.0
49.85,12.4944,1.0,1.0,1.0
49.9,11.4944,1.0,1.0,1.0
49.95,10.4944,1.0,1.0,1.0
50.0,12.0,1.0,1.0,1.0
50.05,18.0,1.0,1.0,1.0
50.1,6.5056,1.0,1.0,1.0
50.15,8.0,1.0,1.0,1.0
50.2,6.0,1.0,1.0,1.0
50.25,4.0,1.0,1.0,1.0
50.3,3.0,1.0,1.0,1.0
50.35,12.0,1.0,1.0,1.0
50.4,7.4944,1.0,1.0,1.0
50.45,12.5056,1.0,1.0,1.0
50.5,14.0,1.0,1.0,1.0
50.55,3.0,1.0,1.0,1.0
50.6,12.0,1.0,1.0,1.0
50.65,5.0,1.0,1.0,1.0
50.7,12.0,1.0,1.0,1.0
50.75,18.9889,1.0,1.0,1.0
50.8,0.0,1.0,1.0,1.0
50.85,9.0,1.0,1.0,1.0
50.9,8.0,1.0,1.0,1.0
50.95,6.0,1.0,1.0,1.0
51.0,9.0,1.0,1.0,1.0
51.05,2.0,1.0,1.0,1.0
51.1,12.0,1.0,1.0,1.0
51.15,2.0,1.0,1.0,1.0
51.2,7.0,1.0,1.0,1.0
51.25,2.0,1.0,1.0,1.0
51.3,5.0,1.0,1.0,1.0
51.35,6.0,1.0,1.0,1.0
51.4,3.0,1.0,1.0,1.0
51.45,12.0,1.0,1.0,1.0
51.5,2.0,1.0,1.0,1.0
51.55,8.0,1.0,1.0,1.0
51.6,11.0,1.0,1.0,1.0
51.65,6.0,1.0,1.0,1.0
51.7,12.0,1.0,1.0,1.0
51.75,11.0,1.0,1.0,1.0
51.8,7.0,1.0,1.0,1.0
51.85,11.5056,1.0,1.0,1.0
51.9,2.0,1.0,1.0,1.0
51.95,16.0,1.0,1.0,1.0
52.0,14.0,1.0,1.0,1.0

File: 22166_SL(CO)L_002_XRD_2-Theta_Omega.asc
*TYPE		=  Raw
*CLASS		=  ASCII CLASS
*SAMPLE		=
*COMMENT	=
*FNAME		=  22166_SL(CO)L_002_XRD_2-Theta_Omega.asc
*DATE		=  02-Dec-22 18:06

*GROUP_COUNT	=  1
*GONIO		=  SmartLab(In-plane), 0.000000
*ATTACHMENT	=  Z-Phi Stage
*ASC		=  0, 0, 0.000000, 0.000000
*I_MONOCHRO	=  Ge(220)x2, 0.000000
*FILTER		=  None
*C_MONOCHRO	=  None, 0.000000
*SLIT_NAME	=  0, Incident slit
*SLIT_NAME	=  1, Receiving slit # 1
*SLIT_NAME	=  2, Receiving slit # 2
*COUNTER	=  D/teX Ultra 250, 0
*POS_FORMAT	=  0
*SCAN_AXIS	=  2Theta/Omega
*MEAS_MODE	=  Continuous Scanning
*TARGET		=  29
*XRAY_CHAR	=  K-ALPHA1
*WAVE_LENGTH1	=  1.54059
*WAVE_LENGTH2	=  1.54441
*THICKNESS	=  0, 0.000000
*MU		=  0, 0.000000
*SCAN_MODE	=  2Theta/Omega
*SPEED_DIM	=  sec./step
*XUNIT		=  deg.
*YUNIT		=  counts
*SCALE_MODE	=  1
*REP_COUNT	=  0
*SE_COUNT	=  0
*STD_MATERIAL	=  Unknown, Unknown, 0.000000, 0.000000, 0.000000, 0.000000, 0.000000, 0.000000
*LATT_CONS	=  0, Unknown, Unknown, 0.000000, 0.000000, 0.000000, 0.000000, 0.000000, 0.000000
*SEC_COUNT	=  1
*TSPEC_SIZE	=  0
*EXTRA_SIZE	=  0
*MEMO		=

*BEGIN
*GROUP		=  0
*START		=  40
*STOP		=  52
*STEP		=  0.01
*OFFSET		=  0.1384
*SPEED		=  22.1803
*SLIT_SPEC	=  0, 0.400mm, 0.4, 0.000000
*SLIT_SPEC	=  1, 0.400mm, 0.4, 0.000000
*SLIT_SPEC	=  2, 0.400mm, 0.4, 0.000000
*KV		=  40
*MA		=  30
*LOW		=  0.000000
*HIGH		=  0.000000
*CTEMPER	=  0, 0.000000
*CTEMPER	=  1, 0.000000
*CTEMPER	=  2, 0.000000
*PAREX		=  0, 0.000000
*PAREX		=  1, 0.000000
*PAREX		=  2, 0.000000
*PAREX		=  3, 0.000000
*PAREX		=  4, 0.000000
*PAREX		=  5, 0.000000
*PAREX		=  6, 0.000000
*PAREX		=  7, 0.000000
*PAREX		=  8, 0.000000
*PAREX		=  9, 0.000000
*PAREX		=  10, 0.000000
*PAREX		=  11, 0.000000
*PAREX		=  12, 0.000000
*PAREX		=  13, 0.000000
*PAREX		=  14, 0.000000
*PAREX		=  15, 0.000000
*FULL_SCALE	=  311105
*INDEX		=  0, 0, 0
*COUNT		=  1201
7, 8.98889, 10.0111, 6
7.49445, 14.0111, 5, 7
8.01111, 6, 7, 2
4, 11, 15.4944, 12.5056
2, 10, 9, 2
8.50555, 3, 0.000000, 3
6.50555, 3, 9, 4
0.000000, 2, 3, 3
0.494446, 13, 4.50555, 2
2.50555, 3, 6, 4
11, 7, 5, 0.000000
7, 0.000000, 7, 7
4, 6, 6, 4
7, 0.000000, 2, 0.000000
2, 11, 9, 5
7, 4, 4.49445, 7.50555
17, 10, 8.49445, 11.5056
3.49445, 10.5056, 1, 14
10.0111, 7.49445, 6.50555, 8
3.98889, 6.01111, 13.4944, 12.5056
4, 10.9889, 13.0111, 10
3, 4, 13, 17
14, 2, 7, 12
10, 11, 12, 4
7.98889, 10.5056, 17, 14.5056
13, 4, 5, 8
4.49445, 12.5056, 9, 14
13, 16, 6, 9
9, 4, 7, 12
2, 13, 7.49445, 6.50555
9, 6, 12, 9
2.49445, 5.50555, 1.49445, 5
7, 7, 10, 11
15, 4, 3, 9
4, 10, 11, 3
6.50555, 9, 8, 4
8, 10.4944, 4.50555, 9
10.5056, 10, 8.49445, 6
7, 8, 9, 6
7, 8.98889, 6.01111, 5
9.50555, 9, 12, 14
2.98889, 7.01111, 4, 28.9889
3, 12, 10, 17.4944
3.50555, 15, 16, 10
11, 5, 16, 14
14, 8, 21, 12
20, 4, 6, 21.4944
9, 11.4944, 10.5056, 13
42, 15, 14, 7
25.5056, 31.5056, 16.4944, 25.5056
16, 38, 28.4944, 37
26.4944, 14.5056, 25, 26
22.0111, 17, 23, 29
26, 26, 24, 15
33, 40.9889, 27.5056, 31.5056
34.5278, 24.9889, 27, 35.5056
33.4944, 40.5056, 23, 42.4833
28, 33.4944, 31, 60.5056
62, 39.4944, 45.0111, 43
61.4944, 44.5056, 62.9889, 39.5167
57.4944, 54.5056, 56.5056, 62.4944
55.4944, 70.4944, 58.4944, 49.5167
77.9889, 102.506, 90.0111, 87.4833
108.506, 103, 114.494, 108
111.494, 81.9889, 104.011, 128.506
120, 134.989, 157.989, 148.517
109.472, 117, 121.011, 162.506
172.483, 167.011, 160.989, 165.506
185.506, 174.989, 194.011, 205.506
196, 195.022, 198.989, 192.978
204.506, 236.472, 205.011, 222
253.494, 239.989, 233.483, 261.539
281.461, 272.022, 291.494, 281.978
301.989, 322.011, 311.483, 337.517
316.506, 351, 352.528, 375.494
401, 424.517, 380.483, 399.011
412, 452.967, 441.044, 486
517.978, 535.528, 571.483, 545.461
562.494, 639.989, 649.989, 621.056
655.472, 675.978, 690.044, 686.978
761.022, 732.978, 803.033, 793.022
825.439, 785.022, 860.022, 922.45
998.033, 940.967, 1002.55, 1048.91
1015.45, 1127.02, 1005.46, 1169.54
1261.51, 1344.46, 1278.99, 1355.56
1431.02, 1491.51, 1538.01, 1605
1716.06, 1616.03, 1664.99, 1691.49
1813.56, 1714.04, 1791.9, 1716.02
1753.97, 1675.52, 1754.06, 1782.92
1865.02, 1885.42, 1849.57, 1841.96
1914.49, 2001.94, 1880.55, 1926.57
1910, 1929.04, 1977.02, 1917
1845.51, 1723.55, 1726.48, 1677.96
1650.49, 1609.39, 1565.57, 1609.01
1719.54, 1758.94, 1930.49, 1966
2498.45, 2586, 2707.48, 2961.43
3656.94, 3740.55, 4059.97, 4134.51
5709.94, 6505.35, 7139.51, 7944.91
19876.3, 25528.8, 34910.7, 52782.3
1763734.3, 2597790, 3504026, 4259882
1938807.6, 645465, 320863, 215870
47150.2, 35660.6, 26997.1, 20397.7
6398.14, 5305.52, 4519.07, 3746.99
1922.02, 1686, 1527.01, 1324.55
811, 726, 685.989, 667.483
440.033, 413.967, 379.528, 386.517
297.022, 274.506, 233.517, 234.978
186.517, 176.506, 164.967, 181.517
136.528, 99, 138.967, 114.044
90, 85.5056, 73.9889, 102.989
61.4944, 61, 62.4944, 48.0111
55.4944, 38, 65.5056, 45.4944
52, 46.4944, 38.5056, 37
31.5056, 31, 56, 48.5056
40, 30.4944, 53.4944, 54.4944
46, 27, 6.98889, 27.0111
17.0111, 26.4944, 29.5056, 20.4944
20, 24.4944, 28, 19.5056
15, 15, 15, 19
8, 5, 16, 9
13, 24.4944, 25.5056, 21
21.5056, 15, 29.4944, 9.50555
6.49445, 15.5056, 13, 15
13, 12.4944, 15.5056, 15
0.000000, 13, 10, 10.4944
12, 12.4944, 14.5056, 9
9.50555, 10.4944, 6.50555, 6
21, 9, 5, 6
8.50555, 4, 7, 6
13.4944, 21, 3.50555, 12
7.49445, 5.50555, 6, 19
6, 5, 14, 4
4, 10, 2, 5
8, 5, 3, 8
5.49445, 7.50555, 2, 18.9889
0.000000, 0.000000, 9, 9
0.000000, 5, 8, 8.49445
2, 2, 10, 7
6, 2, 19, 11
13, 6, 5, 2
7, 12, 9.49445, 10.5056
11, 8, 5, 8
13, 9.49445, 6, 0.505554
9, 12, 3, 12
10, 10, 2, 8
11, 6, 6, 2
3, 8, 12, 11
10.4944, 6.50555, 4, 14
7.49445, 11.5056, 6, 0.000000
10, 4, 6, 16
14
*END

*EOF