Folder: Analysis/XRD:XRR/SCO/22167_SL(CO)L

File: 22167_SL(CO)L_001_XRD.csv
#twotheta, yobs, ycal, bkg, diff
17.0,39.0,1.0,1.0,1.0
17.05,21.992,1.0,1.0,1.0
17.1,28.504,1.0,1.0,1.0
17.15,36.992,1.0,1.0,1.0
17.2,46.496,1.0,1.0,1.0
17.25,39.504,1.0,1.0,1.0
17.3,42.008,1.0,1.0,1.0
17.35,26.0,1.0,1.0,1.0
17.4,23.0,1.0,1.0,1.0
17.45,34.0,1.0,1.0,1.0
17.5,47.504,1.0,1.0,1.0
17.55,36.504,1.0,1.0,1.0
17.6,36.504,1.0,1.0,1.0
17.65,23.504,1.0,1.0,1.0
17.7,30.008,1.0,1.0,1.0
17.75,36.496,1.0,1.0,1.0
17.8,33.992,1.0,1.0,1.0
17.85,38.0,1.0,1.0,1.0
17.9,42.0,1.0,1.0,1.0
17.95,52.008,1.0,1.0,1.0
18.0,44.0,1.0,1.0,1.0
18.05,46.0,1.0,1.0,1.0
18.1,55.504,1.0,1.0,1.0
18.15,39.008,1.0,1.0,1.0
18.2,32.496,1.0,1.0,1.0
18.25,39.008,1.0,1.0,1.0
18.3,34.0,1.0,1.0,1.0
18.35,43.0,1.0,1.0,1.0
18.4,35.008,1.0,1.0,1.0
18.45,40.0159,1.0,1.0,1.0
18.5,15.992,1.0,1.0,1.0
18.55,26.0,1.0,1.0,1.0
18.6,39.496,1.0,1.0,1.0
18.65,28.496,1.0,1.0,1.0
18.7,30.496,1.0,1.0,1.0
18.75,46.504,1.0,1.0,1.0
18.8,48.0,1.0,1.0,1.0
18.85,22.504,1.0,1.0,1.0
18.9,25.496,1.0,1.0,1.0
18.95,42.992,1.0,1.0,1.0
19.0,45.504,1.0,1.0,1.0
19.05,50.0,1.0,1.0,1.0
19.1,45.5119,1.0,1.0,1.0
19.15,48.0,1.0,1.0,1.0
19.2,53.5119,1.0,1.0,1.0
19.25,49.0,1.0,1.0,1.0
19.3,47.504,1.0,1.0,1.0
19.35,39.0,1.0,1.0,1.0
19.4,38.504,1.0,1.0,1.0
19.45,43.992,1.0,1.0,1.0
19.5,42.504,1.0,1.0,1.0
19.55,36.008,1.0,1.0,1.0
19.6,64.0,1.0,1.0,1.0
19.65,51.496,1.0,1.0,1.0
19.7,68.992,1.0,1.0,1.0
19.75,64.5119,1.0,1.0,1.0
19.8,73.0,1.0,1.0,1.0
19.85,101.4881,1.0,1.0,1.0
19.9,112.504,1.0,1.0,1.0
19.95,97.504,1.0,1.0,1.0
20.0,71.504,1.0,1.0,1.0
20.05,62.992,1.0,1.0,1.0
20.1,53.992,1.0,1.0,1.0
20.15,38.504,1.0,1.0,1.0
20.2,48.496,1.0,1.0,1.0
20.25,62.0159,1.0,1.0,1.0
20.3,38.0,1.0,1.0,1.0
20.35,41.0,1.0,1.0,1.0
20.4,36.0,1.0,1.0,1.0
20.45,35.008,1.0,1.0,1.0
20.5,23.496,1.0,1.0,1.0
20.55,37.496,1.0,1.0,1.0
20.6,40.008,1.0,1.0,1.0
20.65,54.504,1.0,1.0,1.0
20.7,58.496,1.0,1.0,1.0
20.75,68.0,1.0,1.0,1.0
20.8,67.992,1.0,1.0,1.0
20.85,47.496,1.0,1.0,1.0
20.9,55.008,1.0,1.0,1.0
20.95,39.504,1.0,1.0,1.0
21.0,46.992,1.0,1.0,1.0
21.05,56.0,1.0,1.0,1.0
21.1,54.008,1.0,1.0,1.0
21.15,38.496,1.0,1.0,1.0
21.2,52.496,1.0,1.0,1.0
21.25,60.008,1.0,1.0,1.0
21.3,96.504,1.0,1.0,1.0
21.35,101.008,1.0,1.0,1.0
21.4,177.504,1.0,1.0,1.0
21.45,210.4801,1.0,1.0,1.0
21.5,242.008,1.0,1.0,1.0
21.55,393.4881,1.0,1.0,1.0
21.6,657.496,1.0,1.0,1.0
21.65,715.0159,1.0,1.0,1.0
21.7,1054.02,1.0,1.0,1.0
21.75,1621.53,1.0,1.0,1.0
21.8,2196.02,1.0,1.0,1.0
21.85,2467.55,1.0,1.0,1.0
21.9,1854.99,1.0,1.0,1.0
21.95,1144.97,1.0,1.0,1.0
22.0,665.488,1.0,1.0,1.0
22.05,561.512,1.0,1.0,1.0
22.1,430.9841,1.0,1.0,1.0
22.15,275.4881,1.0,1.0,1.0
22.2,179.5119,1.0,1.0,1.0
22.25,228.0,1.0,1.0,1.0
22.3,183.5119,1.0,1.0,1.0
22.35,204.4801,1.0,1.0,1.0
22.4,343.504,1.0,1.0,1.0
22.45,580.9921,1.0,1.0,1.0
22.5,740.0079,1.0,1.0,1.0
22.55,1214.02,1.0,1.0,1.0
22.6,2050.54,1.0,1.0,1.0
22.65,2927.48,1.0,1.0,1.0
22.7,4121.07,1.0,1.0,1.0
22.75,6520.54,1.0,1.0,1.0
22.8,9403.55,1.0,1.0,1.0
22.85,10516.9,1.0,1.0,1.0
22.9,8298.02,1.0,1.0,1.0
22.95,4675.47,1.0,1.0,1.0
23.0,2881.55,1.0,1.0,1.0
23.05,3487.488,1.0,1.0,1.0
23.1,3658.99,1.0,1.0,1.0
23.15,3158.0,1.0,1.0,1.0
23.2,3682.06,1.0,1.0,1.0
23.25,5239.08,1.0,1.0,1.0
23.3,7869.05,1.0,1.0,1.0
23.35,15418.2,1.0,1.0,1.0
23.4,56957.4,1.0,1.0,1.0
23.45,1765208.875,1.0,1.0,1.0
23.5,569213.875,1.0,1.0,1.0
23.55,47554.9,1.0,1.0,1.0
23.6,8898.39,1.0,1.0,1.0
23.65,3544.46,1.0,1.0,1.0
23.7,1845.52,1.0,1.0,1.0
23.75,1193.01,1.0,1.0,1.0
23.8,985.4642,1.0,1.0,1.0
23.85,1069.52,1.0,1.0,1.0
23.9,1037.53,1.0,1.0,1.0
23.95,755.512,1.0,1.0,1.0
24.0,583.488,1.0,1.0,1.0
24.05,414.504,1.0,1.0,1.0
24.1,286.008,1.0,1.0,1.0
24.15,276.496,1.0,1.0,1.0
24.2,195.4881,1.0,1.0,1.0
24.25,203.0,1.0,1.0,1.0
24.3,176.4721,1.0,1.0,1.0
24.35,147.992,1.0,1.0,1.0
24.4,134.504,1.0,1.0,1.0
24.45,161.0,1.0,1.0,1.0
24.5,133.4881,1.0,1.0,1.0
24.55,148.504,1.0,1.0,1.0
24.6,105.0,1.0,1.0,1.0
24.65,150.496,1.0,1.0,1.0
24.7,140.4801,1.0,1.0,1.0
24.75,112.0,1.0,1.0,1.0
24.8,81.0,1.0,1.0,1.0
24.85,38.504,1.0,1.0,1.0
24.9,31.496,1.0,1.0,1.0
24.95,43.0,1.0,1.0,1.0
25.0,38.0,1.0,1.0,1.0
25.05,27.992,1.0,1.0,1.0
25.1,36.0,1.0,1.0,1.0
25.15,45.504,1.0,1.0,1.0
25.2,50.504,1.0,1.0,1.0
25.25,29.992,1.0,1.0,1.0
25.3,48.0,1.0,1.0,1.0
25.35,41.0,1.0,1.0,1.0
25.4,39.0,1.0,1.0,1.0
25.45,19.0,1.0,1.0,1.0
25.5,32.0,1.0,1.0,1.0
25.55,36.504,1.0,1.0,1.0
25.6,23.496,1.0,1.0,1.0
25.65,21.0,1.0,1.0,1.0
25.7,12.496,1.0,1.0,1.0
25.75,14.992,1.0,1.0,1.0
25.8,23.504,1.0,1.0,1.0
25.85,30.504,1.0,1.0,1.0
25.9,18.0,1.0,1.0,1.0
25.95,43.504,1.0,1.0,1.0
26.0,17.496,1.0,1.0,1.0
26.05,17.504,1.0,1.0,1.0
26.1,19.496,1.0,1.0,1.0
26.15,9.504,1.0,1.0,1.0
26.2,25.992,1.0,1.0,1.0
26.25,23.0,1.0,1.0,1.0
26.3,20.008,1.0,1.0,1.0
26.35,34.0,1.0,1.0,1.0
26.4,23.496,1.0,1.0,1.0
26.45,16.0,1.0,1.0,1.0
26.5,26.0,1.0,1.0,1.0
26.55,32.504,1.0,1.0,1.0
26.6,22.0,1.0,1.0,1.0
26.65,25.504,1.0,1.0,1.0
26.7,16.0,1.0,1.0,1.0
26.75,31.0,1.0,1.0,1.0
26.8,11.0,1.0,1.0,1.0
26.85,13.496,1.0,1.0,1.0
26.9,10.0,1.0,1.0,1.0
26.95,17.0,1.0,1.0,1.0
27.0,24.0,1.0,1.0,1.0
27.05,28.504,1.0,1.0,1.0
27.1,12.0,1.0,1.0,1.0
27.15,21.0,1.0,1.0,1.0
27.2,23.0,1.0,1.0,1.0
27.25,21.008,1.0,1.0,1.0
27.3,11.0,1.0,1.0,1.0
27.35,20.0,1.0,1.0,1.0
27.4,20.496,1.0,1.0,1.0
27.45,21.504,1.0,1.0,1.0
27.5,9.504,1.0,1.0,1.0
27.55,22.496,1.0,1.0,1.0
27.6,13.0,1.0,1.0,1.0
27.65,15.0,1.0,1.0,1.0
27.7,11.0,1.0,1.0,1.0
27.75,17.0,1.0,1.0,1.0
27.8,7.0,1.0,1.0,1.0
27.85,19.008,1.0,1.0,1.0
27.9,19.008,1.0,1.0,1.0
27.95,20.0,1.0,1.0,1.0
28.0,22.504,1.0,1.0,1.0
28.05,26.0,1.0,1.0,1.0
28.1,9.0,1.0,1.0,1.0
28.15,12.0,1.0,1.0,1.0
28.2,15.992,1.0,1.0,1.0
28.25,11.0,1.0,1.0,1.0
28.3,4.008,1.0,1.0,1.0
28.35,20.496,1.0,1.0,1.0
28.4,34.0,1.0,1.0,1.0
28.45,12.0,1.0,1.0,1.0
28.5,23.0,1.0,1.0,1.0
28.55,8.0,1.0,1.0,1.0
28.6,14.504,1.0,1.0,1.0
28.65,9.0,1.0,1.0,1.0
28.7,8.496,1.0,1.0,1.0
28.75,14.0,1.0,1.0,1.0
28.8,20.496,1.0,1.0,1.0
28.85,5.0,1.0,1.0,1.0
28.9,13.496,1.0,1.0,1.0
28.95,19.992,1.0,1.0,1.0
29.0,11.0,1.0,1.0,1.0

File: 22167_SL(CO)L_002_XRD.csv
#twotheta, yobs, ycal, bkg, diff
40.0,51.0111,1.0,1.0,1.0
40.05,51.0,1.0,1.0,1.0
40.1,56.9889,1.0,1.0,1.0
40.15,42.4944,1.0,1.0,1.0
40.2,58.5056,1.0,1.0,1.0
40.25,51.0,1.0,1.0,1.0
40.3,50.0,1.0,1.0,1.0
40.35,61.9889,1.0,1.0,1.0
40.4,61.4944,1.0,1.0,1.0
40.45,65.5056,1.0,1.0,1.0
40.5,65.5056,1.0,1.0,1.0
40.55,49.9778,1.0,1.0,1.0
40.6,69.0,1.0,1.0,1.0
40.65,71.0,1.0,1.0,1.0
40.7,64.5056,1.0,1.0,1.0
40.75,66.5056,1.0,1.0,1.0
40.8,44.9889,1.0,1.0,1.0
40.85,39.0,1.0,1.0,1.0
40.9,44.4944,1.0,1.0,1.0
40.95,57.0,1.0,1.0,1.0
41.0,60.0111,1.0,1.0,1.0
41.05,36.5056,1.0,1.0,1.0
41.1,67.5056,1.0,1.0,1.0
41.15,51.4944,1.0,1.0,1.0
41.2,65.0,1.0,1.0,1.0
41.25,56.4833,1.0,1.0,1.0
41.3,70.5056,1.0,1.0,1.0
41.35,57.0111,1.0,1.0,1.0
41.4,58.0,1.0,1.0,1.0
41.45,57.4944,1.0,1.0,1.0
41.5,65.5167,1.0,1.0,1.0
41.55,55.0111,1.0,1.0,1.0
41.6,65.0111,1.0,1.0,1.0
41.65,60.5056,1.0,1.0,1.0
41.7,55.9889,1.0,1.0,1.0
41.75,67.4944,1.0,1.0,1.0
41.8,77.0111,1.0,1.0,1.0
41.85,39.0,1.0,1.0,1.0
41.9,63.4944,1.0,1.0,1.0
41.95,48.0,1.0,1.0,1.0
42.0,68.0,1.0,1.0,1.0
42.05,49.9889,1.0,1.0,1.0
42.1,52.4944,1.0,1.0,1.0
42.15,71.4944,1.0,1.0,1.0
42.2,68.9889,1.0,1.0,1.0
42.25,55.4944,1.0,1.0,1.0
42.3,73.4944,1.0,1.0,1.0
42.35,72.0,1.0,1.0,1.0
42.4,60.5056,1.0,1.0,1.0
42.45,59.4944,1.0,1.0,1.0
42.5,67.5056,1.0,1.0,1.0
42.55,56.4833,1.0,1.0,1.0
42.6,52.4944,1.0,1.0,1.0
42.65,67.0,1.0,1.0,1.0
42.7,56.4944,1.0,1.0,1.0
42.75,60.0111,1.0,1.0,1.0
42.8,74.5167,1.0,1.0,1.0
42.85,66.4833,1.0,1.0,1.0
42.9,57.4944,1.0,1.0,1.0
42.95,93.0,1.0,1.0,1.0
43.0,101.0,1.0,1.0,1.0
43.05,118.0,1.0,1.0,1.0
43.1,93.9889,1.0,1.0,1.0
43.15,123.0,1.0,1.0,1.0
43.2,133.0,1.0,1.0,1.0
43.25,133.5056,1.0,1.0,1.0
43.3,99.4833,1.0,1.0,1.0
43.35,91.0111,1.0,1.0,1.0
43.4,94.0222,1.0,1.0,1.0
43.45,89.0,1.0,1.0,1.0
43.5,88.0111,1.0,1.0,1.0
43.55,102.0,1.0,1.0,1.0
43.6,102.0,1.0,1.0,1.0
43.65,86.0,1.0,1.0,1.0
43.7,77.4833,1.0,1.0,1.0
43.75,72.5056,1.0,1.0,1.0
43.8,86.0,1.0,1.0,1.0
43.85,68.0111,1.0,1.0,1.0
43.9,72.4833,1.0,1.0,1.0
43.95,77.4944,1.0,1.0,1.0
44.0,82.5056,1.0,1.0,1.0
44.05,73.5056,1.0,1.0,1.0
44.1,111.5056,1.0,1.0,1.0
44.15,113.4833,1.0,1.0,1.0
44.2,161.5056,1.0,1.0,1.0
44.25,193.5056,1.0,1.0,1.0
44.3,250.9778,1.0,1.0,1.0
44.35,245.5056,1.0,1.0,1.0
44.4,259.0111,1.0,1.0,1.0
44.45,235.9778,1.0,1.0,1.0
44.5,200.0222,1.0,1.0,1.0
44.55,182.0111,1.0,1.0,1.0
44.6,222.5167,1.0,1.0,1.0
44.65,281.5167,1.0,1.0,1.0
44.7,294.4833,1.0,1.0,1.0
44.75,334.0,1.0,1.0,1.0
44.8,308.0111,1.0,1.0,1.0
44.85,340.5056,1.0,1.0,1.0
44.9,478.0667,1.0,1.0,1.0
44.95,616.0111,1.0,1.0,1.0
45.0,846.9556,1.0,1.0,1.0
45.05,1157.01,1.0,1.0,1.0
45.1,1701.9,1.0,1.0,1.0
45.15,2269.99,1.0,1.0,1.0
45.2,2848.48,1.0,1.0,1.0
45.25,3735.97,1.0,1.0,1.0
45.3,4304.55,1.0,1.0,1.0
45.35,4854.39,1.0,1.0,1.0
45.4,4987.16,1.0,1.0,1.0
45.45,4852.46,1.0,1.0,1.0
45.5,4260.54,1.0,1.0,1.0
45.55,3647.07,1.0,1.0,1.0
45.6,3225.55,1.0,1.0,1.0
45.65,3122.07,1.0,1.0,1.0
45.7,3381.02,1.0,1.0,1.0
45.75,3369.01,1.0,1.0,1.0
45.8,3078.09,1.0,1.0,1.0
45.85,2557.93,1.0,1.0,1.0
45.9,2420.62,1.0,1.0,1.0
45.95,2464.96,1.0,1.0,1.0
46.0,2925.55,1.0,1.0,1.0
46.05,3523.08,1.0,1.0,1.0
46.1,5071.04,1.0,1.0,1.0
46.15,7050.41,1.0,1.0,1.0
46.2,9376.41,1.0,1.0,1.0
46.25,12548.3,1.0,1.0,1.0
46.3,16026.9,1.0,1.0,1.0
46.35,18882.3,1.0,1.0,1.0
46.4,21768.2,1.0,1.0,1.0
46.45,23062.2,1.0,1.0,1.0
46.5,22685.5,1.0,1.0,1.0
46.55,20558.7,1.0,1.0,1.0
46.6,17859.6,1.0,1.0,1.0
46.65,15001,1.0,1.0,1.0
46.7,13033.8,1.0,1.0,1.0
46.75,12341.9,1.0,1.0,1.0
46.8,11886,1.0,1.0,1.0
46.85,11141,1.0,1.0,1.0
46.9,9678.43,1.0,1.0,1.0
46.95,7549.561,1.0,1.0,1.0
47.0,5495.94,1.0,1.0,1.0
47.05,4324.52,1.0,1.0,1.0
47.1,3399.9,1.0,1.0,1.0
47.15,2470.98,1.0,1.0,1.0
47.2,2064.06,1.0,1.0,1.0
47.25,1618.48,1.0,1.0,1.0
47.3,1249.52,1.0,1.0,1.0
47.35,949.9889,1.0,1.0,1.0
47.4,811.0222,1.0,1.0,1.0
47.45,891.0222,1.0,1.0,1.0
47.5,1345.43,1.0,1.0,1.0
47.55,2339.02,1.0,1.0,1.0
47.6,3682.91,1.0,1.0,1.0
47.65,5134.1,1.0,1.0,1.0
47.7,6650.46,1.0,1.0,1.0
47.75,8506.8,1.0,1.0,1.0
47.8,13800.7,1.0,1.0,1.0
47.85,35178.8,1.0,1.0,1.0
47.9,112970,1.0,1.0,1.0
47.95,1361261.625,1.0,1.0,1.0
48.0,1792856.0,1.0,1.0,1.0
48.05,172137,1.0,1.0,1.0
48.1,41111.5,1.0,1.0,1.0
48.15,13010.583,1.0,1.0,1.0
48.2,5139.67,1.0,1.0,1.0
48.25,2835.45,1.0,1.0,1.0
48.3,1688.55,1.0,1.0,1.0
48.35,1224.51,1.0,1.0,1.0
48.4,973.0111,1.0,1.0,1.0
48.45,750.5278,1.0,1.0,1.0
48.5,693.4833,1.0,1.0,1.0
48.55,669.4722,1.0,1.0,1.0
48.6,622.5167,1.0,1.0,1.0
48.65,603.0555,1.0,1.0,1.0
48.7,492.0333,1.0,1.0,1.0
48.75,487.4833,1.0,1.0,1.0
48.8,384.0222,1.0,1.0,1.0
48.85,366.0111,1.0,1.0,1.0
48.9,382.5167,1.0,1.0,1.0
48.95,318.0,1.0,1.0,1.0
49.0,284.0222,1.0,1.0,1.0
49.05,262.5056,1.0,1.0,1.0
49.1,247.0333,1.0,1.0,1.0
49.15,205.5278,1.0,1.0,1.0
49.2,159.5056,1.0,1.0,1.0
49.25,140.0111,1.0,1.0,1.0
49.3,127.0111,1.0,1.0,1.0
49.35,117.5056,1.0,1.0,1.0
49.4,105.0,1.0,1.0,1.0
49.45,85.0111,1.0,1.0,1.0
49.5,68.5056,1.0,1.0,1.0
49.55,93.0,1.0,1.0,1.0
49.6,75.0111,1.0,1.0,1.0
49.65,76.5167,1.0,1.0,1.0
49.7,70.4944,1.0,1.0,1.0
49.75,81.5056,1.0,1.0,1.0
49.8,72.4944,1.0,1.0,1.0
49.85,74.5056,1.0,1.0,1.0
49.9,80.4944,1.0,1.0,1.0
49.95,77.5056,1.0,1.0,1.0
50.0,92.0,1.0,1.0,1.0
50.05,70.0,1.0,1.0,1.0
50.1,66.0,1.0,1.0,1.0
50.15,54.9889,1.0,1.0,1.0
50.2,57.4944,1.0,1.0,1.0
50.25,59.0,1.0,1.0,1.0
50.3,46.0,1.0,1.0,1.0
50.35,68.0,1.0,1.0,1.0
50.4,74.5056,1.0,1.0,1.0
50.45,64.0,1.0,1.0,1.0
50.5,60.9889,1.0,1.0,1.0
50.55,59.0,1.0,1.0,1.0
50.6,81.0,1.0,1.0,1.0
50.65,35.9889,1.0,1.0,1.0
50.7,43.5056,1.0,1.0,1.0
50.75,47.4944,1.0,1.0,1.0
50.8,59.0,1.0,1.0,1.0
50.85,40.0,1.0,1.0,1.0
50.9,45.0,1.0,1.0,1.0
50.95,51.5056,1.0,1.0,1.0
51.0,61.0,1.0,1.0,1.0
51.05,30.0,1.0,1.0,1.0
51.1,56.9889,1.0,1.0,1.0
51.15,44.9889,1.0,1.0,1.0
51.2,72.4944,1.0,1.0,1.0
51.25,43.5056,1.0,1.0,1.0
51.3,55.5167,1.0,1.0,1.0
51.35,55.4944,1.0,1.0,1.0
51.4,57.9889,1.0,1.0,1.0
51.45,49.0,1.0,1.0,1.0
51.5,41.4944,1.0,1.0,1.0
51.55,56.0111,1.0,1.0,1.0
51.6,53.4944,1.0,1.0,1.0
51.65,25.5056,1.0,1.0,1.0
51.7,47.4944,1.0,1.0,1.0
51.75,38.0,1.0,1.0,1.0
51.8,54.9889,1.0,1.0,1.0
51.85,46.0111,1.0,1.0,1.0
51.9,46.9889,1.0,1.0,1.0
51.95,44.4944,1.0,1.0,1.0
52.0,35.4833,1.0,1.0,1.0
52.05,43.0,1.0,1.0,1.0
52.1,44.5056,1.0,1.0,1.0
52.15,43.0111,1.0,1.0,1.0
52.2,20.0,1.0,1.0,1.0
52.25,30.0,1.0,1.0,1.0
52.3,35.0,1.0,1.0,1.0
52.35,29.0,1.0,1.0,1.0
52.4,45.9889,1.0,1.0,1.0
52.45,34.0,1.0,1.0,1.0
52.5,34.4944,1.0,1.0,1.0
52.55,45.0,1.0,1.0,1.0
52.6,35.5167,1.0,1.0,1.0
52.65,34.0,1.0,1.0,1.0
52.7,43.4944,1.0,1.0,1.0
52.75,41.0,1.0,1.0,1.0
52.8,45.0,1.0,1.0,1.0
52.85,50.0,1.0,1.0,1.0
52.9,41.9889,1.0,1.0,1.0
52.95,40.5056,1.0,1.0,1.0
53.0,39.5056,1.0,1.0,1.0
53.05,46.5056,1.0,1.0,1.0
53.1,38.0,1.0,1.0,1.0
53.15,50.0111,1.0,1.0,1.0
53.2,53.5056,1.0,1.0,1.0
53.25,52.0111,1.0,1.0,1.0
53.3,37.0,1.0,1.0,1.0
53.35,36.4944,1.0,1.0,1.0
53.4,56.5056,1.0,1.0,1.0
53.45,40.0111,1.0,1.0,1.0
53.5,39.4944,1.0,1.0,1.0
53.55,30.0,1.0,1.0,1.0
53.6,45.0,1.0,1.0,1.0
53.65,38.0,1.0,1.0,1.0
53.7,48.5056,1.0,1.0,1.0
53.75,28.5056,1.0,1.0,1.0
53.8,24.0111,1.0,1.0,1.0
53.85,44.0,1.0,1.0,1.0
53.9,48.0,1.0,1.0,1.0
53.95,45.0,1.0,1.0,1.0
54.0,41.0,1.0,1.0,1.0

File: 22167_SL(CO)L_XRD_001_2-Theta_Omega.asc
*TYPE		=  Raw
*CLASS		=  ASCII CLASS
*SAMPLE		=
*COMMENT	=
*FNAME		=  22167_SL(CO)L_XRD_001_2-Theta_Omega.asc
*DATE		=  08-Dec-22 17:02

*GROUP_COUNT	=  1
*GONIO		=  SmartLab(In-plane), 0.000000
*ATTACHMENT	=  Z-Phi Stage
*ASC		=  0, 0, 0.000000, 0.000000
*I_MONOCHRO	=  Ge(220)x2, 0.000000
*FILTER		=  None
*C_MONOCHRO	=  None, 0.000000
*SLIT_NAME	=  0, Incident slit
*SLIT_NAME	=  1, Receiving slit # 1
*SLIT_NAME	=  2, Receiving slit # 2
*COUNTER	=  D/teX Ultra 250, 0
*POS_FORMAT	=  0
*SCAN_AXIS	=  2Theta/Omega
*MEAS_MODE	=  Continuous Scanning
*TARGET		=  29
*XRAY_CHAR	=  K-ALPHA1
*WAVE_LENGTH1	=  1.54059
*WAVE_LENGTH2	=  1.54441
*THICKNESS	=  0, 0.000000
*MU		=  0, 0.000000
*SCAN_MODE	=  2Theta/Omega
*SPEED_DIM	=  sec./step
*XUNIT		=  deg.
*YUNIT		=  counts
*SCALE_MODE	=  1
*REP_COUNT	=  0
*SE_COUNT	=  0
*STD_MATERIAL	=  Unknown, Unknown, 0.000000, 0.000000, 0.000000, 0.000000, 0.000000, 0.000000
*LATT_CONS	=  0, Unknown, Unknown, 0.000000, 0.000000, 0.000000, 0.000000, 0.000000, 0.000000
*SEC_COUNT	=  1
*TSPEC_SIZE	=  0
*EXTRA_SIZE	=  0
*MEMO		=

*BEGIN
*GROUP		=  0
*START		=  17
*STOP		=  29
*STEP		=  0.01
*OFFSET		=  -0.111800
*SPEED		=  22.1803
*SLIT_SPEC	=  0, 0.400mm, 0.4, 0.000000
*SLIT_SPEC	=  1, 0.400mm, 0.4, 0.000000
*SLIT_SPEC	=  2, 0.400mm, 0.4, 0.000000
*KV		=  40
*MA		=  30
*LOW		=  0.000000
*HIGH		=  0.000000
*CTEMPER	=  0, 0.000000
*CTEMPER	=  1, 0.000000
*CTEMPER	=  2, 0.000000
*PAREX		=  0, 0.000000
*PAREX		=  1, 0.000000
*PAREX		=  2, 0.000000
*PAREX		=  3, 0.000000
*PAREX		=  4, 0.000000
*PAREX		=  5, 0.000000
*PAREX		=  6, 0.000000
*PAREX		=  7, 0.000000
*PAREX		=  8, 0.000000
*PAREX		=  9, 0.000000
*PAREX		=  10, 0.000000
*PAREX		=  11, 0.000000
*PAREX		=  12, 0.000000
*PAREX		=  13, 0.000000
*PAREX		=  14, 0.000000
*PAREX		=  15, 0.000000
*FULL_SCALE	=  1022371.8
*INDEX		=  0, 0, 0
*COUNT		=  1201
39, 28, 29.496, 19
35, 32, 28.504, 29.496
30, 29.008, 43.496, 26
33, 39.504, 23.992, 44.504
40.496, 18, 39, 26
23, 38, 26, 35
43.504, 40, 47.504, 48
41.496, 46, 36, 29
33, 23.504, 48.496, 49.504
39.5119, 46.992, 31, 36.496
33.992, 44.504, 43.496, 40.5119
37.496, 58, 42, 30
48.9841, 30, 39.504, 44.496
47.496, 46, 40, 48.504
31, 43.496, 33, 39.008
32.496, 47.504, 32.496, 34.5119
46, 41, 34, 16.504
31, 32, 45.504, 39.496
42, 40.0159, 40.9841, 39
37.5119, 63.992, 28.496, 26
39.496, 41, 44, 32
31.504, 32, 30.496, 43
34.008, 34.992, 45, 57
41, 22.504, 41, 23.496
35.496, 37, 25.5119, 42.992
45.504, 36.496, 31.504, 49.992
24, 15.992, 45.5119, 37.992
38, 27.504, 41.496, 52
37, 49, 32.992, 35.504
27, 31.992, 27, 39
38.504, 36.504, 42.496, 41
48, 53, 42.504, 54
47, 54.496, 37.496, 37.008
60.504, 51.496, 59.008, 59.504
48.496, 67.496, 56.504, 64.5119
73, 92.992, 101.504, 93.992
102.512, 104.992, 112.504, 120.992
75, 89, 69.504, 75.496
45, 62.992, 63.496, 52.008
40.992, 44.008, 41.992, 38.504
48.496, 39.5119, 43.4881, 46.504
44.504, 50.496, 38, 37
40, 24.504, 37.496, 37
32.496, 35.008, 35.496, 34
59, 39, 51.504, 37.496
40.008, 32.992, 37.504, 36.504
55.992, 60, 58.496, 61
65, 47.496, 57.008, 43.008
64.504, 47.496, 54, 42.008
25.504, 33.496, 53, 39.504
46.992, 60.496, 55.496, 61
49.496, 23, 54.008, 52.992
54.504, 57.496, 50, 57.504
58, 60.008, 76.504, 77.496
69.008, 73, 82.496, 101.008
177.504, 173, 194.504, 191.016
230.48, 247.008, 242.008, 305.504
490.992, 489, 535.008, 594.52
749.496, 715.016, 835.504, 833.992
1214.02, 1265.56, 1463.45, 1621.53
2196.02, 2334.01, 2486, 2475.98
2245.51, 2085.98, 1854.99, 1742.53
958.992, 783.472, 770.552, 713.968
522.008, 561.512, 562.984, 595.016
340.984, 299, 294.008, 275.488
179.512, 184, 169.488, 194.52
183.496, 187.992, 183.512, 209.488
204.016, 249.512, 291.992, 295.504
526.024, 580.992, 570.504, 613.488
908.992, 997.496, 1064.5, 1214.02
2050.54, 2237.44, 2403.57, 2699.52
3545.02, 3884.96, 4121.07, 4327.05
7037.04, 7515.94, 8181.16, 8744.99
10654.6, 10516.9, 10538.7, 10170.9
6789.5, 6084.81, 5156.01, 4675.47
2881.55, 2908.41, 2945.05, 3037.5
3714.02, 3685.49, 3658.99, 3546.94
3245.49, 3168.54, 3391.5, 3430.99
4886.95, 5239.08, 5829.59, 6298.1
9797.66, 11078.6, 12905.7, 15418.2
56957.4, 81798, 131123, 238355
11329776, 2245075.8, 569214, 296097
30834.9, 21431.5, 15916.6, 11604.7
4050.41, 3544.46, 3016.93, 2554.52
1523.97, 1294.01, 1258.5, 1193.01
985.464, 987.544, 1017.97, 993.552
998.464, 1020.5, 1037.53, 1062.99
783.992, 711.48, 670.016, 599.992
433.984, 414.504, 405.496, 423.512
316.496, 255.992, 297.504, 276.496
195.488, 209.016, 233.992, 219
158, 178.52, 176.472, 150.008
155.008, 141.992, 161, 145
135.504, 161, 133.504, 134.504
133.008, 122.504, 157.496, 148.504
105, 126.496, 138.512, 136.488
133.512, 136.512, 140.48, 100.008
120, 95.008, 75.9841, 74
40.504, 38.504, 40.992, 45
42.504, 25.496, 33, 43
38, 45, 53.008, 35.496
34.008, 51.992, 36, 45.008
48.992, 44, 41, 23.504
39, 29.992, 38, 44.504
33, 15, 33, 41
39, 42, 27.496, 29
40, 22, 32, 26.504
30.496, 29, 22, 20.504
23.496, 21, 16, 12
18.504, 13.992, 21.008, 14.992
23.504, 21.496, 29, 35.504
35, 20, 18, 45.008
43.496, 24.008, 44.496, 29
26.504, 17.504, 45.992, 36.504
17, 24, 28, 9.50398
25.992, 11, 25, 29.008
33.504, 17.496, 20.008, 17.992
25, 14, 30.504, 26
17.504, 16, 14.496, 33.504
40.504, 19.992, 8, 32.504
22, 19.008, 33.992, 25
17.504, 24, 16, 25.496
30, 21.504, 23.496, 17
25.992, 13.496, 21, 23
25, 20, 9, 17
24, 13, 12, 22.504
15.504, 17.496, 12, 15
16.504, 17.504, 27.496, 11.496
22.496, 21.008, 21.992, 19
13.496, 13, 12, 20
20.496, 9, 11, 7
10, 13, 9.50398, 16
6.49602, 20, 10, 21
9, 15, 25.504, 17.496
20, 26.504, 16.496, 17
7, 13, 15, 15
7, 15, 19.008, 10.992
12.504, 9.49602, 16, 9.00797
57.992, 26, 25, 10
13.496, 15, 8, 12
15.992, 20, 14, 13
4, 12, 4.00797, 13.992
21, 7.50398, 14.496, 13
10, 12, 18, 17.504
14.496, 17.008, 4.99203, 8
14.504, 17.496, 15, 14.008
12, 9.50398, 8.49602, 10
16, 19, 17.5119, 14.992
12, 5, 7, 7
12, 13.504, 10.504, 19.992
11
*END

*EOF