Folder: Analysis/XRD:XRR/SCO/22165_SL(CO)L

File: 22165_SL(CO)L_002_XRD.csv
#twotheta, yobs, ycal, bkg, diff
42.0,5.0,1.0,1.0,1.0
42.03,9.0,1.0,1.0,1.0
42.06,9.0,1.0,1.0,1.0
42.09,7.0,1.0,1.0,1.0
42.12,7.0,1.0,1.0,1.0
42.15,4.0,1.0,1.0,1.0
42.18,11.0,1.0,1.0,1.0
42.21,7.0,1.0,1.0,1.0
42.24,9.0,1.0,1.0,1.0
42.27,8.4944,1.0,1.0,1.0
42.3,15.0111,1.0,1.0,1.0
42.33,8.0,1.0,1.0,1.0
42.36,8.5056,1.0,1.0,1.0
42.39,4.0,1.0,1.0,1.0
42.42,8.0,1.0,1.0,1.0
42.45,7.0,1.0,1.0,1.0
42.48,5.0,1.0,1.0,1.0
42.51,5.0,1.0,1.0,1.0
42.54,24.4944,1.0,1.0,1.0
42.57,4.0,1.0,1.0,1.0
42.6,12.5056,1.0,1.0,1.0
42.63,7.0,1.0,1.0,1.0
42.66,6.0,1.0,1.0,1.0
42.69,6.0,1.0,1.0,1.0
42.72,7.0,1.0,1.0,1.0
42.75,5.0,1.0,1.0,1.0
42.78,8.4944,1.0,1.0,1.0
42.81,6.0,1.0,1.0,1.0
42.84,13.4944,1.0,1.0,1.0
42.87,11.0,1.0,1.0,1.0
42.9,5.0,1.0,1.0,1.0
42.93,14.0,1.0,1.0,1.0
42.96,4.0,1.0,1.0,1.0
42.99,3.0,1.0,1.0,1.0
43.02,68.0,1.0,1.0,1.0
43.05,5.4944,1.0,1.0,1.0
43.08,13.0,1.0,1.0,1.0
43.11,115.0,1.0,1.0,1.0
43.14,21.4944,1.0,1.0,1.0
43.17,12.0,1.0,1.0,1.0
43.2,13.0,1.0,1.0,1.0
43.23,25.0,1.0,1.0,1.0
43.26,23.0,1.0,1.0,1.0
43.29,16.0,1.0,1.0,1.0
43.32,19.0,1.0,1.0,1.0
43.35,13.0,1.0,1.0,1.0
43.38,19.5056,1.0,1.0,1.0
43.41,10.0,1.0,1.0,1.0
43.44,11.4833,1.0,1.0,1.0
43.47,8.0,1.0,1.0,1.0
43.5,20.9889,1.0,1.0,1.0
43.53,14.5056,1.0,1.0,1.0
43.56,13.0,1.0,1.0,1.0
43.59,13.0,1.0,1.0,1.0
43.62,14.0,1.0,1.0,1.0
43.65,32.0,1.0,1.0,1.0
43.68,18.4944,1.0,1.0,1.0
43.71,28.5056,1.0,1.0,1.0
43.74,15.4944,1.0,1.0,1.0
43.77,32.5056,1.0,1.0,1.0
43.8,28.5056,1.0,1.0,1.0
43.83,44.4944,1.0,1.0,1.0
43.86,47.0,1.0,1.0,1.0
43.89,33.0,1.0,1.0,1.0
43.92,30.0,1.0,1.0,1.0
43.95,40.4944,1.0,1.0,1.0
43.98,46.5167,1.0,1.0,1.0
44.01,58.0111,1.0,1.0,1.0
44.04,42.0,1.0,1.0,1.0
44.07,68.4944,1.0,1.0,1.0
44.1,38.4833,1.0,1.0,1.0
44.13,55.5056,1.0,1.0,1.0
44.16,35.5056,1.0,1.0,1.0
44.19,55.4833,1.0,1.0,1.0
44.22,42.0111,1.0,1.0,1.0
44.25,84.9889,1.0,1.0,1.0
44.28,77.4944,1.0,1.0,1.0
44.31,104.5056,1.0,1.0,1.0
44.34,70.4944,1.0,1.0,1.0
44.37,78.4944,1.0,1.0,1.0
44.4,85.5056,1.0,1.0,1.0
44.43,76.5167,1.0,1.0,1.0
44.46,70.4944,1.0,1.0,1.0
44.49,105.5167,1.0,1.0,1.0
44.52,88.0,1.0,1.0,1.0
44.55,82.9889,1.0,1.0,1.0
44.58,112.5056,1.0,1.0,1.0
44.61,79.9889,1.0,1.0,1.0
44.64,84.0,1.0,1.0,1.0
44.67,65.0,1.0,1.0,1.0
44.7,65.9889,1.0,1.0,1.0
44.73,84.4833,1.0,1.0,1.0
44.76,83.4944,1.0,1.0,1.0
44.79,99.9889,1.0,1.0,1.0
44.82,107.0111,1.0,1.0,1.0
44.85,113.5056,1.0,1.0,1.0
44.88,171.4722,1.0,1.0,1.0
44.91,162.0111,1.0,1.0,1.0
44.94,162.0,1.0,1.0,1.0
44.97,222.0,1.0,1.0,1.0
45.0,254.9778,1.0,1.0,1.0
45.03,292.4833,1.0,1.0,1.0
45.06,357.5056,1.0,1.0,1.0
45.09,368.5167,1.0,1.0,1.0
45.12,378.0222,1.0,1.0,1.0
45.15,381.5167,1.0,1.0,1.0
45.18,469.0333,1.0,1.0,1.0
45.21,497.4722,1.0,1.0,1.0
45.24,444.5167,1.0,1.0,1.0
45.27,444.0222,1.0,1.0,1.0
45.3,402.5167,1.0,1.0,1.0
45.33,329.0444,1.0,1.0,1.0
45.36,273.9889,1.0,1.0,1.0
45.39,217.5056,1.0,1.0,1.0
45.42,228.9889,1.0,1.0,1.0
45.45,215.4833,1.0,1.0,1.0
45.48,242.4833,1.0,1.0,1.0
45.51,240.0222,1.0,1.0,1.0
45.54,265.5167,1.0,1.0,1.0
45.57,294.9889,1.0,1.0,1.0
45.6,290.0222,1.0,1.0,1.0
45.63,345.4722,1.0,1.0,1.0
45.66,366.0333,1.0,1.0,1.0
45.69,492.4833,1.0,1.0,1.0
45.72,573.4722,1.0,1.0,1.0
45.75,741.5722,1.0,1.0,1.0
45.78,848.9889,1.0,1.0,1.0
45.81,1005.99,1.0,1.0,1.0
45.84,1178.49,1.0,1.0,1.0
45.87,1381.49,1.0,1.0,1.0
45.9,1538.97,1.0,1.0,1.0
45.93,1804.49,1.0,1.0,1.0
45.96,1906.46,1.0,1.0,1.0
45.99,1998.43,1.0,1.0,1.0
46.02,2062.06,1.0,1.0,1.0
46.05,1777.99,1.0,1.0,1.0
46.08,1621.48,1.0,1.0,1.0
46.11,1264.1,1.0,1.0,1.0
46.14,1115.54,1.0,1.0,1.0
46.17,1005.52,1.0,1.0,1.0
46.2,879.4722,1.0,1.0,1.0
46.23,937.9778,1.0,1.0,1.0
46.26,922.0,1.0,1.0,1.0
46.29,970.4944,1.0,1.0,1.0
46.32,858.0444,1.0,1.0,1.0
46.35,793.4611,1.0,1.0,1.0
46.38,794.5167,1.0,1.0,1.0
46.41,810.5389,1.0,1.0,1.0
46.44,913.4611,1.0,1.0,1.0
46.47,1094.99,1.0,1.0,1.0
46.5,1379.51,1.0,1.0,1.0
46.53,1648.06,1.0,1.0,1.0
46.56,2113.45,1.0,1.0,1.0
46.59,2722.91,1.0,1.0,1.0
46.62,3297.59,1.0,1.0,1.0
46.65,4220.83,1.0,1.0,1.0
46.68,5053.55,1.0,1.0,1.0
46.71,5781.96,1.0,1.0,1.0
46.74,6310.43,1.0,1.0,1.0
46.77,6509.48,1.0,1.0,1.0
46.8,6341.561,1.0,1.0,1.0
46.83,5927.42,1.0,1.0,1.0
46.86,5398.57,1.0,1.0,1.0
46.89,4867.06,1.0,1.0,1.0
46.92,4581.0,1.0,1.0,1.0
46.95,4590.52,1.0,1.0,1.0
46.98,4590.439,1.0,1.0,1.0
47.01,4733.02,1.0,1.0,1.0
47.04,4740.0,1.0,1.0,1.0
47.07,4541.03,1.0,1.0,1.0
47.1,4250.06,1.0,1.0,1.0
47.13,3885.57,1.0,1.0,1.0
47.16,3472.48,1.0,1.0,1.0
47.19,2944.04,1.0,1.0,1.0
47.22,2653.09,1.0,1.0,1.0
47.25,2444.51,1.0,1.0,1.0
47.28,2254.11,1.0,1.0,1.0
47.31,2149.55,1.0,1.0,1.0
47.34,2153.46,1.0,1.0,1.0
47.37,2256.45,1.0,1.0,1.0
47.4,2492.42,1.0,1.0,1.0
47.43,3089.01,1.0,1.0,1.0
47.46,3485.09,1.0,1.0,1.0
47.49,3807.93,1.0,1.0,1.0
47.52,3859.61,1.0,1.0,1.0
47.55,3900.54,1.0,1.0,1.0
47.58,3079.0,1.0,1.0,1.0
47.61,2627.54,1.0,1.0,1.0
47.64,2139.51,1.0,1.0,1.0
47.67,1921.47,1.0,1.0,1.0
47.7,1957.48,1.0,1.0,1.0
47.73,2433.46,1.0,1.0,1.0
47.76,3228.94,1.0,1.0,1.0
47.79,4480.92,1.0,1.0,1.0
47.82,6928.43,1.0,1.0,1.0
47.85,12901.7,1.0,1.0,1.0
47.88,26174.2,1.0,1.0,1.0
47.91,57112,1.0,1.0,1.0
47.94,145814,1.0,1.0,1.0
47.97,847901.875,1.0,1.0,1.0
48.0,14926206.0,1.0,1.0,1.0
48.03,5315156.5,1.0,1.0,1.0
48.06,1071516.5,1.0,1.0,1.0
48.09,48948.6,1.0,1.0,1.0
48.12,16902.6,1.0,1.0,1.0
48.15,9988.0,1.0,1.0,1.0
48.18,7428.52,1.0,1.0,1.0
48.21,6131.91,1.0,1.0,1.0
48.24,5166.92,1.0,1.0,1.0
48.27,3733.06,1.0,1.0,1.0
48.3,2681.03,1.0,1.0,1.0
48.33,1883.04,1.0,1.0,1.0
48.36,1381.51,1.0,1.0,1.0
48.39,1043.97,1.0,1.0,1.0
48.42,920.9889,1.0,1.0,1.0
48.45,777.4611,1.0,1.0,1.0
48.48,695.0,1.0,1.0,1.0
48.51,560.9889,1.0,1.0,1.0
48.54,407.5278,1.0,1.0,1.0
48.57,381.0,1.0,1.0,1.0
48.6,284.5167,1.0,1.0,1.0
48.63,290.0111,1.0,1.0,1.0
48.66,273.5167,1.0,1.0,1.0
48.69,263.0222,1.0,1.0,1.0
48.72,223.0,1.0,1.0,1.0
48.75,240.0111,1.0,1.0,1.0
48.78,225.4944,1.0,1.0,1.0
48.81,207.0222,1.0,1.0,1.0
48.84,185.4944,1.0,1.0,1.0
48.87,144.9889,1.0,1.0,1.0
48.9,119.0,1.0,1.0,1.0
48.93,103.0111,1.0,1.0,1.0
48.96,62.5167,1.0,1.0,1.0
48.99,82.0111,1.0,1.0,1.0
49.02,84.5056,1.0,1.0,1.0
49.05,53.5056,1.0,1.0,1.0
49.08,46.9889,1.0,1.0,1.0
49.11,39.5056,1.0,1.0,1.0
49.14,34.0111,1.0,1.0,1.0
49.17,30.4944,1.0,1.0,1.0
49.2,42.5056,1.0,1.0,1.0
49.23,33.5056,1.0,1.0,1.0
49.26,25.0111,1.0,1.0,1.0
49.29,29.5056,1.0,1.0,1.0
49.32,21.0,1.0,1.0,1.0
49.35,52.5056,1.0,1.0,1.0
49.38,38.0,1.0,1.0,1.0
49.41,29.5056,1.0,1.0,1.0
49.44,22.9889,1.0,1.0,1.0
49.47,28.0111,1.0,1.0,1.0
49.5,52.9889,1.0,1.0,1.0
49.53,30.0,1.0,1.0,1.0
49.56,35.0,1.0,1.0,1.0
49.59,38.4944,1.0,1.0,1.0
49.62,32.5056,1.0,1.0,1.0
49.65,40.0111,1.0,1.0,1.0
49.68,28.5056,1.0,1.0,1.0
49.71,18.9889,1.0,1.0,1.0
49.74,33.0,1.0,1.0,1.0
49.77,12.0,1.0,1.0,1.0
49.8,4.4944,1.0,1.0,1.0
49.83,29.0,1.0,1.0,1.0
49.86,17.0,1.0,1.0,1.0
49.89,11.0,1.0,1.0,1.0
49.92,5.0,1.0,1.0,1.0
49.95,18.0,1.0,1.0,1.0
49.98,12.0,1.0,1.0,1.0
50.0,7.4944,1.0,1.0,1.0

File: 22165_SL(CO)L_XRD_001.csv
#twotheta, yobs, ycal, bkg, diff
16.0,35.0,1.0,1.0,1.0
16.05,38.0,1.0,1.0,1.0
16.1,37.5008,1.0,1.0,1.0
16.15,45.5008,1.0,1.0,1.0
16.2,31.4992,1.0,1.0,1.0
16.25,46.4992,1.0,1.0,1.0
16.3,50.0,1.0,1.0,1.0
16.35,35.0,1.0,1.0,1.0
16.4,49.9984,1.0,1.0,1.0
16.45,41.4992,1.0,1.0,1.0
16.5,45.9984,1.0,1.0,1.0
16.55,36.9984,1.0,1.0,1.0
16.6,46.0,1.0,1.0,1.0
16.65,36.4992,1.0,1.0,1.0
16.7,47.9969,1.0,1.0,1.0
16.75,40.5008,1.0,1.0,1.0
16.8,33.5008,1.0,1.0,1.0
16.85,40.5008,1.0,1.0,1.0
16.9,33.5008,1.0,1.0,1.0
16.95,55.5008,1.0,1.0,1.0
17.0,33.9984,1.0,1.0,1.0
17.05,34.9984,1.0,1.0,1.0
17.1,47.0016,1.0,1.0,1.0
17.15,44.4992,1.0,1.0,1.0
17.2,43.0,1.0,1.0,1.0
17.25,35.0016,1.0,1.0,1.0
17.3,48.4992,1.0,1.0,1.0
17.35,45.0,1.0,1.0,1.0
17.4,62.4992,1.0,1.0,1.0
17.45,34.0,1.0,1.0,1.0
17.5,53.0,1.0,1.0,1.0
17.55,43.0,1.0,1.0,1.0
17.6,31.5008,1.0,1.0,1.0
17.65,46.0,1.0,1.0,1.0
17.7,50.0,1.0,1.0,1.0
17.75,66.5008,1.0,1.0,1.0
17.8,52.4992,1.0,1.0,1.0
17.85,61.0016,1.0,1.0,1.0
17.9,70.9984,1.0,1.0,1.0
17.95,35.0016,1.0,1.0,1.0
18.0,48.9984,1.0,1.0,1.0
18.05,53.4992,1.0,1.0,1.0
18.1,51.0,1.0,1.0,1.0
18.15,32.0016,1.0,1.0,1.0
18.2,45.0,1.0,1.0,1.0
18.25,48.5008,1.0,1.0,1.0
18.3,54.0,1.0,1.0,1.0
18.35,55.4992,1.0,1.0,1.0
18.4,48.4992,1.0,1.0,1.0
18.45,53.0,1.0,1.0,1.0
18.5,39.0,1.0,1.0,1.0
18.55,44.4992,1.0,1.0,1.0
18.6,51.0,1.0,1.0,1.0
18.65,37.0,1.0,1.0,1.0
18.7,59.5008,1.0,1.0,1.0
18.75,35.5008,1.0,1.0,1.0
18.8,58.5008,1.0,1.0,1.0
18.85,31.0,1.0,1.0,1.0
18.9,34.0016,1.0,1.0,1.0
18.95,26.0,1.0,1.0,1.0
19.0,64.4992,1.0,1.0,1.0
19.05,54.4992,1.0,1.0,1.0
19.1,58.5024,1.0,1.0,1.0
19.15,65.5008,1.0,1.0,1.0
19.2,65.0,1.0,1.0,1.0
19.25,46.5008,1.0,1.0,1.0
19.3,64.0,1.0,1.0,1.0
19.35,53.0,1.0,1.0,1.0
19.4,48.0016,1.0,1.0,1.0
19.45,43.5008,1.0,1.0,1.0
19.5,54.5008,1.0,1.0,1.0
19.55,55.9984,1.0,1.0,1.0
19.6,44.5008,1.0,1.0,1.0
19.65,30.0,1.0,1.0,1.0
19.7,42.5008,1.0,1.0,1.0
19.75,40.5008,1.0,1.0,1.0
19.8,52.0,1.0,1.0,1.0
19.85,40.0,1.0,1.0,1.0
19.9,87.9984,1.0,1.0,1.0
19.95,59.4992,1.0,1.0,1.0
20.0,97.0016,1.0,1.0,1.0
20.05,64.0,1.0,1.0,1.0
20.1,44.4992,1.0,1.0,1.0
20.15,60.4961,1.0,1.0,1.0
20.2,64.5008,1.0,1.0,1.0
20.25,74.0047,1.0,1.0,1.0
20.3,58.0,1.0,1.0,1.0
20.35,43.5008,1.0,1.0,1.0
20.4,54.0,1.0,1.0,1.0
20.45,66.4976,1.0,1.0,1.0
20.5,44.0,1.0,1.0,1.0
20.55,44.4992,1.0,1.0,1.0
20.6,47.0,1.0,1.0,1.0
20.65,63.5024,1.0,1.0,1.0
20.7,83.4945,1.0,1.0,1.0
20.75,72.5024,1.0,1.0,1.0
20.8,42.0016,1.0,1.0,1.0
20.85,54.5008,1.0,1.0,1.0
20.9,60.0016,1.0,1.0,1.0
20.95,57.4992,1.0,1.0,1.0
21.0,41.4992,1.0,1.0,1.0
21.05,46.0016,1.0,1.0,1.0
21.1,63.9984,1.0,1.0,1.0
21.15,67.9984,1.0,1.0,1.0
21.2,122.0,1.0,1.0,1.0
21.25,231.0031,1.0,1.0,1.0
21.3,261.4992,1.0,1.0,1.0
21.35,161.5008,1.0,1.0,1.0
21.4,178.0016,1.0,1.0,1.0
21.45,105.5039,1.0,1.0,1.0
21.5,204.4992,1.0,1.0,1.0
21.55,227.4976,1.0,1.0,1.0
21.6,226.0016,1.0,1.0,1.0
21.65,151.0063,1.0,1.0,1.0
21.7,136.5008,1.0,1.0,1.0
21.75,159.5024,1.0,1.0,1.0
21.8,172.4992,1.0,1.0,1.0
21.85,206.4992,1.0,1.0,1.0
21.9,411.0,1.0,1.0,1.0
21.95,625.9968,1.0,1.0,1.0
22.0,728.5008,1.0,1.0,1.0
22.05,499.5008,1.0,1.0,1.0
22.1,340.0016,1.0,1.0,1.0
22.15,363.4992,1.0,1.0,1.0
22.2,585.5039,1.0,1.0,1.0
22.25,717.0047,1.0,1.0,1.0
22.3,679.4992,1.0,1.0,1.0
22.35,577.4945,1.0,1.0,1.0
22.4,789.5008,1.0,1.0,1.0
22.45,937.5024,1.0,1.0,1.0
22.5,680.5024,1.0,1.0,1.0
22.55,434.0016,1.0,1.0,1.0
22.6,554.9968,1.0,1.0,1.0
22.65,954.0032,1.0,1.0,1.0
22.7,1056,1.0,1.0,1.0
22.75,813.4976,1.0,1.0,1.0
22.8,759.4992,1.0,1.0,1.0
22.85,1149,1.0,1.0,1.0
22.9,1747.01,1.0,1.0,1.0
22.95,2120,1.0,1.0,1.0
23.0,2560.49,1.0,1.0,1.0
23.05,3528.5,1.0,1.0,1.0
23.1,5222.499,1.0,1.0,1.0
23.15,6057.981,1.0,1.0,1.0
23.2,4836.51,1.0,1.0,1.0
23.25,2931.49,1.0,1.0,1.0
23.3,4274.48,1.0,1.0,1.0
23.35,14373.4,1.0,1.0,1.0
23.4,566327.5,1.0,1.0,1.0
23.45,3155992.0,1.0,1.0,1.0
23.5,291133,1.0,1.0,1.0
23.55,20747.1,1.0,1.0,1.0
23.6,5128.022,1.0,1.0,1.0
23.65,2235,1.0,1.0,1.0
23.7,1123.01,1.0,1.0,1.0
23.75,516.0016,1.0,1.0,1.0
23.8,460.0016,1.0,1.0,1.0
23.85,489.9984,1.0,1.0,1.0
23.9,472.0,1.0,1.0,1.0
23.95,336.5023,1.0,1.0,1.0
24.0,202.5039,1.0,1.0,1.0
24.05,136.0016,1.0,1.0,1.0
24.1,119.9984,1.0,1.0,1.0
24.15,119.0,1.0,1.0,1.0
24.2,92.4992,1.0,1.0,1.0
24.25,63.0,1.0,1.0,1.0
24.3,46.4992,1.0,1.0,1.0
24.35,57.0,1.0,1.0,1.0
24.4,51.0,1.0,1.0,1.0
24.45,53.4992,1.0,1.0,1.0
24.5,81.5008,1.0,1.0,1.0
24.55,69.0016,1.0,1.0,1.0
24.6,77.0,1.0,1.0,1.0
24.65,62.9984,1.0,1.0,1.0
24.7,45.5008,1.0,1.0,1.0
24.75,52.4992,1.0,1.0,1.0
24.8,25.0,1.0,1.0,1.0
24.85,41.0,1.0,1.0,1.0
24.9,36.0,1.0,1.0,1.0
24.95,45.5008,1.0,1.0,1.0
25.0,50.0,1.0,1.0,1.0
25.05,52.0,1.0,1.0,1.0
25.1,46.0,1.0,1.0,1.0
25.15,54.0,1.0,1.0,1.0
25.2,40.5008,1.0,1.0,1.0
25.25,43.4992,1.0,1.0,1.0
25.3,24.0,1.0,1.0,1.0
25.35,20.0,1.0,1.0,1.0
25.4,25.9984,1.0,1.0,1.0
25.45,31.5008,1.0,1.0,1.0
25.5,10.0,1.0,1.0,1.0
25.55,17.4992,1.0,1.0,1.0
25.6,20.0,1.0,1.0,1.0
25.65,27.5008,1.0,1.0,1.0
25.7,27.0,1.0,1.0,1.0
25.75,53.5008,1.0,1.0,1.0
25.8,23.5008,1.0,1.0,1.0
25.85,37.0016,1.0,1.0,1.0
25.9,22.4992,1.0,1.0,1.0
25.95,20.4992,1.0,1.0,1.0
26.0,16.5008,1.0,1.0,1.0
26.05,28.5008,1.0,1.0,1.0
26.1,25.4992,1.0,1.0,1.0
26.15,37.0,1.0,1.0,1.0
26.2,19.0,1.0,1.0,1.0
26.25,26.0016,1.0,1.0,1.0
26.3,10.4992,1.0,1.0,1.0
26.35,15.5008,1.0,1.0,1.0
26.4,18.0,1.0,1.0,1.0
26.45,13.0,1.0,1.0,1.0
26.5,27.0,1.0,1.0,1.0
26.55,23.4992,1.0,1.0,1.0
26.6,20.4992,1.0,1.0,1.0
26.65,16.0,1.0,1.0,1.0
26.7,18.0,1.0,1.0,1.0
26.75,25.5008,1.0,1.0,1.0
26.8,15.5008,1.0,1.0,1.0
26.85,22.5008,1.0,1.0,1.0
26.9,21.0,1.0,1.0,1.0
26.95,13.0,1.0,1.0,1.0
27.0,20.9984,1.0,1.0,1.0
27.05,18.0,1.0,1.0,1.0
27.1,22.4992,1.0,1.0,1.0
27.15,5.0,1.0,1.0,1.0
27.2,15.5008,1.0,1.0,1.0
27.25,28.0,1.0,1.0,1.0
27.3,21.0016,1.0,1.0,1.0
27.35,17.5008,1.0,1.0,1.0
27.4,11.0,1.0,1.0,1.0
27.45,23.0,1.0,1.0,1.0
27.5,23.0,1.0,1.0,1.0
27.55,17.4992,1.0,1.0,1.0
27.6,25.5008,1.0,1.0,1.0
27.65,18.0,1.0,1.0,1.0
27.7,13.4992,1.0,1.0,1.0
27.75,3.5008,1.0,1.0,1.0
27.8,20.0,1.0,1.0,1.0
27.85,11.5008,1.0,1.0,1.0
27.9,24.9984,1.0,1.0,1.0
27.95,15.0,1.0,1.0,1.0
28.0,19.4992,1.0,1.0,1.0
28.05,24.0,1.0,1.0,1.0
28.1,16.0,1.0,1.0,1.0
28.15,23.0,1.0,1.0,1.0
28.2,9.4992,1.0,1.0,1.0
28.25,14.5008,1.0,1.0,1.0
28.3,8.0,1.0,1.0,1.0
28.35,6.0,1.0,1.0,1.0
28.4,17.5008,1.0,1.0,1.0
28.45,23.0,1.0,1.0,1.0
28.5,18.5008,1.0,1.0,1.0
28.55,23.0,1.0,1.0,1.0
28.6,13.4992,1.0,1.0,1.0
28.65,12.0,1.0,1.0,1.0
28.7,19.0,1.0,1.0,1.0
28.75,14.0,1.0,1.0,1.0
28.8,5.0,1.0,1.0,1.0
28.85,27.0016,1.0,1.0,1.0
28.9,23.4992,1.0,1.0,1.0
28.95,10.0,1.0,1.0,1.0
29.0,17.0,1.0,1.0,1.0
29.05,13.0,1.0,1.0,1.0
29.1,11.0,1.0,1.0,1.0
29.15,25.0,1.0,1.0,1.0
29.2,22.5008,1.0,1.0,1.0
29.25,16.5008,1.0,1.0,1.0
29.3,15.0,1.0,1.0,1.0
29.35,16.5008,1.0,1.0,1.0
29.4,9.0,1.0,1.0,1.0
29.45,9.0,1.0,1.0,1.0
29.5,15.0,1.0,1.0,1.0
29.55,6.0,1.0,1.0,1.0
29.6,13.4992,1.0,1.0,1.0
29.65,15.0,1.0,1.0,1.0
29.7,18.5008,1.0,1.0,1.0
29.75,10.5008,1.0,1.0,1.0
29.8,14.0,1.0,1.0,1.0
29.85,10.9984,1.0,1.0,1.0
29.9,6.0,1.0,1.0,1.0
29.95,17.0,1.0,1.0,1.0
30.0,7.0,1.0,1.0,1.0

File: 22165_SL(CO)L_XRD_001_2-Theta_Omega.asc
*TYPE		=  Raw
*CLASS		=  ASCII CLASS
*SAMPLE		=
*COMMENT	=
*FNAME		=  22165_SL(CO)L_XRD_001_2-Theta_Omega.asc
*DATE		=  10-Dec-22 21:33

*GROUP_COUNT	=  1
*GONIO		=  SmartLab(In-plane), 0.000000
*ATTACHMENT	=  Z-Phi Stage
*ASC		=  0, 0, 0.000000, 0.000000
*I_MONOCHRO	=  Ge(220)x2, 0.000000
*FILTER		=  None
*C_MONOCHRO	=  None, 0.000000
*SLIT_NAME	=  0, Incident slit
*SLIT_NAME	=  1, Receiving slit # 1
*SLIT_NAME	=  2, Receiving slit # 2
*COUNTER	=  D/teX Ultra 250, 0
*POS_FORMAT	=  0
*SCAN_AXIS	=  2Theta/Omega
*MEAS_MODE	=  Continuous Scanning
*TARGET		=  29
*XRAY_CHAR	=  K-ALPHA1
*WAVE_LENGTH1	=  1.54059
*WAVE_LENGTH2	=  1.54441
*THICKNESS	=  0, 0.000000
*MU		=  0, 0.000000
*SCAN_MODE	=  2Theta/Omega
*SPEED_DIM	=  sec./step
*XUNIT		=  deg.
*YUNIT		=  counts
*SCALE_MODE	=  1
*REP_COUNT	=  0
*SE_COUNT	=  0
*STD_MATERIAL	=  Unknown, Unknown, 0.000000, 0.000000, 0.000000, 0.000000, 0.000000, 0.000000
*LATT_CONS	=  0, Unknown, Unknown, 0.000000, 0.000000, 0.000000, 0.000000, 0.000000, 0.000000
*SEC_COUNT	=  1
*TSPEC_SIZE	=  0
*EXTRA_SIZE	=  0
*MEMO		=

*BEGIN
*GROUP		=  0
*START		=  16
*STOP		=  30
*STEP		=  0.01
*OFFSET		=  0.1653
*SPEED		=  23.9588
*SLIT_SPEC	=  0, 0.400mm, 0.4, 0.000000
*SLIT_SPEC	=  1, 0.400mm, 0.4, 0.000000
*SLIT_SPEC	=  2, 0.400mm, 0.4, 0.000000
*KV		=  40
*MA		=  30
*LOW		=  0.000000
*HIGH		=  0.000000
*CTEMPER	=  0, 0.000000
*CTEMPER	=  1, 0.000000
*CTEMPER	=  2, 0.000000
*PAREX		=  0, 0.000000
*PAREX		=  1, 0.000000
*PAREX		=  2, 0.000000
*PAREX		=  3, 0.000000
*PAREX		=  4, 0.000000
*PAREX		=  5, 0.000000
*PAREX		=  6, 0.000000
*PAREX		=  7, 0.000000
*PAREX		=  8, 0.000000
*PAREX		=  9, 0.000000
*PAREX		=  10, 0.000000
*PAREX		=  11, 0.000000
*PAREX		=  12, 0.000000
*PAREX		=  13, 0.000000
*PAREX		=  14, 0.000000
*PAREX		=  15, 0.000000
*FULL_SCALE	=  307383
*INDEX		=  0, 0, 0
*COUNT		=  1401
35, 45.4976, 40.5024, 39
29, 34.9984, 37.5008, 42
37.4992, 41.5008, 49, 33
33.5008, 46.4992, 27.4992, 44.0016
14.9984, 29.0016, 42.4992, 35
49.9984, 40.4992, 38.5024, 49
38.5008, 53, 45.9984, 43.0016
45, 28.0016, 32.4992, 34.4992
43.5024, 36.4992, 32.5008, 48
57, 51, 56.5008, 40.5008
33.5008, 51.4976, 52.5024, 32
50, 55.4992, 33.5008, 40
30.5008, 49, 35, 47
48.4992, 34.9984, 51.5024, 46
41.4992, 38.5008, 44, 44.4992
43, 44, 28.9984, 31.5008
28.4992, 56.5008, 48.4992, 33.5008
46.5008, 40.4992, 32.4992, 52.5008
46, 34, 57.5008, 49
40.5008, 49.4992, 48.5008, 43
31.5008, 31.4976, 68.0016, 46
49.0016, 34, 50, 48.4992
41, 38.9969, 52.0016, 64.0016
41.4992, 61.0016, 50.4992, 41.5008
49.4992, 38.5008, 62.4992, 35.0016
48.9984, 54.0031, 44, 43
31.5008, 48.0016, 51, 55.9984
37, 50.4992, 39, 56.5008
30.4992, 48.5008, 41.4992, 48
46, 40.5008, 35.4992, 55.4992
48.4992, 46, 52, 23.5008
39, 37, 39, 55.4992
50, 42, 44, 44.5008
37, 37, 39, 37.4992
44, 58.4992, 38, 35.5008
58.5008, 45.4976, 38.0016, 41
44.4992, 39.4992, 34.0016, 30.4992
42.4992, 36.4992, 44.0016, 70
42.4976, 54.4992, 69.5024, 37
43, 50, 47.4992, 65.5008
65, 41.5008, 57.9984, 51
80.5024, 46, 64, 60.4992
49.5008, 53, 53, 44.9984
56.5008, 43.5008, 42.5008, 55.4992
48.9984, 51.5024, 47, 55.9984
44.5008, 47, 50, 25.4992
33.0016, 56.4976, 42.5008, 33.0016
45.4992, 47.9984, 67, 51.5024
47.5008, 40, 56.9984, 57.5008
77, 72.5008, 89.4992, 59.4992
97.0016, 66, 64.9969, 77.0016
58.0016, 42.5008, 44.4992, 76.9984
51.5039, 40.9984, 66.0016, 64.9984
61.9953, 74.0047, 41, 70
36.4976, 74.0031, 40.4992, 43.5008
54, 59, 42, 58.5008
70.9969, 52.0031, 44, 44.4992
56, 52.0016, 50, 61.5008
74.9984, 63.5024, 80.4992, 83.4992
80, 67.5008, 67.9969, 72.5024
42.0016, 51, 81.4976, 42.5008
47, 79.9984, 60.0016, 48.4992
59.5008, 41, 46, 45.4992
55.4992, 46.0016, 34.9984, 35.5008
57, 63, 78, 67.9984
122, 145.498, 163.504, 152.498
215.498, 216.003, 261.499, 261.997
180.002, 187.499, 188, 177.998
129.997, 105.504, 140.498, 165.498
199.502, 233, 221, 227.498
226.002, 220.499, 178.003, 193.501
174.501, 143.002, 136.501, 175
156.498, 127.502, 160.499, 158.498
198.501, 206.499, 248, 275.003
510.003, 521.003, 606.998, 625.997
728.501, 696, 626.005, 614.002
413.002, 334.998, 340.002, 313.499
458.002, 435.997, 512.003, 575.995
623.997, 717.005, 708.002, 654.002
628.002, 655.502, 596.499, 577.495
789.501, 881.994, 870.505, 883
878.005, 760, 680.502, 579.997
448.498, 400.498, 451.006, 504.994
895.997, 954.003, 1047, 1066.5
958.504, 1029, 881.507, 813.498
759.499, 703.003, 807.496, 911.502
1582.5, 1582.49, 1747.01, 1799.49
2255, 2282, 2277.5, 2403.5
3206.98, 3528.5, 3809.49, 4150.5
5716.49, 5983.02, 6158.99, 6057.98
4836.51, 4382.03, 3958.49, 3575.5
3000.99, 3541.5, 4274.48, 5373.98
19482.4, 27346.8, 46227.4, 172496
2217138.3, 3155992, 4690127, 5962155.5
79716.1, 49952.8, 31567.7, 20747.1
5128.02, 4148, 3387.51, 3023.51
1455.01, 1311.5, 1123.01, 966.002
487.997, 461.502, 407.499, 397.501
480.499, 489.998, 525.005, 498.995
416.502, 400.499, 339.998, 336.502
202.504, 208.496, 191.504, 183.502
129.501, 113, 119.998, 103.501
121.002, 95, 81.4992, 100.002
54.5024, 63, 78.4992, 71
59.9984, 55.0016, 76.4992, 57
51, 38, 40, 58
59, 90.4992, 81.5008, 68
78, 52.4992, 69.0016, 73.9984
61.0016, 62.9984, 44.5008, 42.5008
48, 50, 53.4992, 52.4992
25, 38.4992, 42, 32.5008
54.9984, 52.5008, 36, 37
34.4992, 28.5008, 41.9984, 44
24.0016, 52, 47.4992, 41.5008
44, 59, 39.0016, 54
40.5008, 48, 34, 14
35.0016, 30, 24, 22
25, 20.4992, 26.5008, 18
24.4992, 31.5008, 20, 24
23, 23, 23, 17.4992
20, 34.9984, 25.0016, 31
30, 38, 27, 16.4992
22, 47, 39, 31.4992
29.9984, 37.0016, 28, 17.4992
28.5008, 22.4992, 30.5008, 20.4992
16.5008, 14.5008, 11.9984, 29.0016
17, 18, 25.4992, 26
23, 20.9984, 30.0016, 17
12.9984, 26.0016, 21, 17
33.5008, 22, 23.9984, 15.5008
18, 14, 6, 24
17.4992, 22, 27, 20.5008
15.5008, 12, 19, 4.49921
20, 16, 15.9984, 20
11, 15, 18.4992, 25.5008
15.5008, 18, 16, 22.4992
25.5008, 13.4992, 21, 19.5008
20.4992, 20.5008, 22.4992, 20.5008
15, 18, 16, 18
16.4992, 27.5008, 17.4992, 5
15.5008, 18, 11, 20
21, 12.9984, 21.0016, 29.4992
16, 18, 28, 12
16, 23, 17, 21
21.0016, 11.4992, 19.5008, 17.4992
25.5008, 28.4992, 18.5008, 18
24.5008, 18.4992, 13.4992, 13.0016
16.9984, 17.5008, 24.5008, 31
15.4992, 11.5008, 13, 24.9984
27.5008, 16, 9, 15
19.4992, 25.0016, 17.4992, 16
24.5008, 13, 16, 11
7, 18, 19, 15
25, 14.5008, 16.4992, 17.5008
24, 16, 11, 6
17.5008, 14.5008, 16, 20
14, 7.49921, 18.5008, 12
4, 23, 6, 15
9.50079, 12, 16, 11
17, 4, 7, 14
5, 20, 19, 19.4992
29, 18, 23.4992, 12.5008
5, 19, 18, 8
13, 13, 13.4992, 14
12.4976, 18.5024, 23, 25
22.5008, 25, 14.4992, 11.5008
14.5008, 29, 15, 25.9984
18, 25, 17, 25
20.5008, 9, 10, 11
3.50079, 6, 12, 6
13.4992, 12.5008, 12, 9
15, 7.49921, 18.5008, 17
12, 23, 20, 6
6, 10.9984, 9.00157, 11
19, 9, 15, 17
7
*END

*EOF