Folder: Analysis/XRD:XRR/SCO/22169_SL(CO)L

File: 22169_SL(CO)L_001_XRD.csv
#twotheta, yobs, ycal, bkg, diff
18.0,33.0,1.0,1.0,1.0
18.04,41.0,1.0,1.0,1.0
18.08,26.504,1.0,1.0,1.0
18.12,50.008,1.0,1.0,1.0
18.16,35.0,1.0,1.0,1.0
18.2,33.504,1.0,1.0,1.0
18.24,41.0,1.0,1.0,1.0
18.28,38.504,1.0,1.0,1.0
18.32,38.992,1.0,1.0,1.0
18.36,31.0,1.0,1.0,1.0
18.4,57.504,1.0,1.0,1.0
18.44,27.0,1.0,1.0,1.0
18.48,40.008,1.0,1.0,1.0
18.52,37.0,1.0,1.0,1.0
18.56,33.0,1.0,1.0,1.0
18.6,28.504,1.0,1.0,1.0
18.64,31.0,1.0,1.0,1.0
18.68,57.496,1.0,1.0,1.0
18.72,14.992,1.0,1.0,1.0
18.76,26.504,1.0,1.0,1.0
18.8,54.008,1.0,1.0,1.0
18.84,33.0,1.0,1.0,1.0
18.88,30.0,1.0,1.0,1.0
18.92,42.504,1.0,1.0,1.0
18.96,39.0,1.0,1.0,1.0
19.0,34.5119,1.0,1.0,1.0
19.04,44.0,1.0,1.0,1.0
19.08,39.496,1.0,1.0,1.0
19.12,53.008,1.0,1.0,1.0
19.16,41.008,1.0,1.0,1.0
19.2,40.992,1.0,1.0,1.0
19.24,26.0,1.0,1.0,1.0
19.28,48.992,1.0,1.0,1.0
19.32,47.496,1.0,1.0,1.0
19.36,32.0,1.0,1.0,1.0
19.4,53.496,1.0,1.0,1.0
19.44,44.0,1.0,1.0,1.0
19.48,28.0,1.0,1.0,1.0
19.52,31.496,1.0,1.0,1.0
19.56,34.0,1.0,1.0,1.0
19.6,25.504,1.0,1.0,1.0
19.64,23.504,1.0,1.0,1.0
19.68,32.496,1.0,1.0,1.0
19.72,36.4881,1.0,1.0,1.0
19.76,35.496,1.0,1.0,1.0
19.8,39.0,1.0,1.0,1.0
19.84,35.504,1.0,1.0,1.0
19.88,35.496,1.0,1.0,1.0
19.92,31.0,1.0,1.0,1.0
19.96,54.0239,1.0,1.0,1.0
20.0,63.504,1.0,1.0,1.0
20.04,86.0,1.0,1.0,1.0
20.08,49.504,1.0,1.0,1.0
20.12,79.992,1.0,1.0,1.0
20.16,60.008,1.0,1.0,1.0
20.2,68.504,1.0,1.0,1.0
20.24,67.0159,1.0,1.0,1.0
20.28,47.4881,1.0,1.0,1.0
20.32,43.0,1.0,1.0,1.0
20.36,26.0,1.0,1.0,1.0
20.4,45.4881,1.0,1.0,1.0
20.44,17.4881,1.0,1.0,1.0
20.48,47.504,1.0,1.0,1.0
20.52,39.0,1.0,1.0,1.0
20.56,37.504,1.0,1.0,1.0
20.6,39.992,1.0,1.0,1.0
20.64,33.0,1.0,1.0,1.0
20.68,53.992,1.0,1.0,1.0
20.72,37.0,1.0,1.0,1.0
20.76,33.504,1.0,1.0,1.0
20.8,40.992,1.0,1.0,1.0
20.84,58.496,1.0,1.0,1.0
20.88,46.992,1.0,1.0,1.0
20.92,55.008,1.0,1.0,1.0
20.96,46.4881,1.0,1.0,1.0
21.0,33.0,1.0,1.0,1.0
21.04,61.504,1.0,1.0,1.0
21.08,40.008,1.0,1.0,1.0
21.12,45.0,1.0,1.0,1.0
21.16,69.504,1.0,1.0,1.0
21.2,84.0,1.0,1.0,1.0
21.24,99.992,1.0,1.0,1.0
21.28,100.496,1.0,1.0,1.0
21.32,118.0,1.0,1.0,1.0
21.36,118.496,1.0,1.0,1.0
21.4,142.0,1.0,1.0,1.0
21.44,178.496,1.0,1.0,1.0
21.48,164.496,1.0,1.0,1.0
21.52,152.5199,1.0,1.0,1.0
21.56,175.5119,1.0,1.0,1.0
21.6,167.5119,1.0,1.0,1.0
21.64,152.496,1.0,1.0,1.0
21.68,138.0,1.0,1.0,1.0
21.72,127.0,1.0,1.0,1.0
21.76,135.496,1.0,1.0,1.0
21.8,156.0,1.0,1.0,1.0
21.84,188.5119,1.0,1.0,1.0
21.88,342.0,1.0,1.0,1.0
21.92,484.0159,1.0,1.0,1.0
21.96,664.9681,1.0,1.0,1.0
22.0,849.0079,1.0,1.0,1.0
22.04,893.9841,1.0,1.0,1.0
22.08,901.504,1.0,1.0,1.0
22.12,857.9761,1.0,1.0,1.0
22.16,783.496,1.0,1.0,1.0
22.2,683.0,1.0,1.0,1.0
22.24,667.4721,1.0,1.0,1.0
22.28,568.512,1.0,1.0,1.0
22.32,513.9921,1.0,1.0,1.0
22.36,468.5199,1.0,1.0,1.0
22.4,393.0239,1.0,1.0,1.0
22.44,322.992,1.0,1.0,1.0
22.48,271.9841,1.0,1.0,1.0
22.52,236.0,1.0,1.0,1.0
22.56,309.5119,1.0,1.0,1.0
22.6,455.5119,1.0,1.0,1.0
22.64,700.5199,1.0,1.0,1.0
22.68,1069.01,1.0,1.0,1.0
22.72,1746.02,1.0,1.0,1.0
22.76,2349.96,1.0,1.0,1.0
22.8,2835.6,1.0,1.0,1.0
22.84,3215.98,1.0,1.0,1.0
22.88,3346.08,1.0,1.0,1.0
22.92,3119.58,1.0,1.0,1.0
22.96,2715.512,1.0,1.0,1.0
23.0,2353.94,1.0,1.0,1.0
23.04,2231.95,1.0,1.0,1.0
23.08,2063.0,1.0,1.0,1.0
23.12,2149.46,1.0,1.0,1.0
23.16,2194.512,1.0,1.0,1.0
23.2,2661.58,1.0,1.0,1.0
23.24,3286.03,1.0,1.0,1.0
23.28,4688.58,1.0,1.0,1.0
23.32,8156.21,1.0,1.0,1.0
23.36,20980,1.0,1.0,1.0
23.4,1.03407e+06,1.0,1.0,1.0
23.44,2443068.5,1.0,1.0,1.0
23.48,450744.75,1.0,1.0,1.0
23.52,68491.7,1.0,1.0,1.0
23.56,15423.5,1.0,1.0,1.0
23.6,4979.9,1.0,1.0,1.0
23.64,2266.97,1.0,1.0,1.0
23.68,1407.94,1.0,1.0,1.0
23.72,988.9522,1.0,1.0,1.0
23.76,702.0159,1.0,1.0,1.0
23.8,517.9921,1.0,1.0,1.0
23.84,415.9841,1.0,1.0,1.0
23.88,313.9841,1.0,1.0,1.0
23.92,236.9841,1.0,1.0,1.0
23.96,250.0159,1.0,1.0,1.0
24.0,175.496,1.0,1.0,1.0
24.04,188.504,1.0,1.0,1.0
24.08,165.4881,1.0,1.0,1.0
24.12,132.4801,1.0,1.0,1.0
24.16,151.504,1.0,1.0,1.0
24.2,100.504,1.0,1.0,1.0
24.24,123.504,1.0,1.0,1.0
24.28,87.5119,1.0,1.0,1.0
24.32,90.992,1.0,1.0,1.0
24.36,80.992,1.0,1.0,1.0
24.4,58.008,1.0,1.0,1.0
24.44,67.504,1.0,1.0,1.0
24.48,58.504,1.0,1.0,1.0
24.52,66.008,1.0,1.0,1.0
24.56,62.0,1.0,1.0,1.0
24.6,65.504,1.0,1.0,1.0
24.64,72.0,1.0,1.0,1.0
24.68,60.496,1.0,1.0,1.0
24.72,85.992,1.0,1.0,1.0
24.76,46.008,1.0,1.0,1.0
24.8,41.504,1.0,1.0,1.0
24.84,46.496,1.0,1.0,1.0
24.88,48.0,1.0,1.0,1.0
24.92,20.0,1.0,1.0,1.0
24.96,31.504,1.0,1.0,1.0
25.0,16.0,1.0,1.0,1.0
25.04,28.992,1.0,1.0,1.0
25.08,26.0,1.0,1.0,1.0
25.12,28.504,1.0,1.0,1.0
25.16,28.0,1.0,1.0,1.0
25.2,36.992,1.0,1.0,1.0
25.24,12.0,1.0,1.0,1.0
25.28,22.0,1.0,1.0,1.0
25.32,36.0,1.0,1.0,1.0
25.36,19.0,1.0,1.0,1.0
25.4,19.992,1.0,1.0,1.0
25.44,26.0,1.0,1.0,1.0
25.48,38.504,1.0,1.0,1.0
25.52,31.0,1.0,1.0,1.0
25.56,23.0,1.0,1.0,1.0
25.6,24.504,1.0,1.0,1.0
25.64,27.0,1.0,1.0,1.0
25.68,24.496,1.0,1.0,1.0
25.72,20.496,1.0,1.0,1.0
25.76,24.0,1.0,1.0,1.0
25.8,32.504,1.0,1.0,1.0
25.84,22.008,1.0,1.0,1.0
25.88,27.0,1.0,1.0,1.0
25.92,19.0,1.0,1.0,1.0
25.96,23.496,1.0,1.0,1.0
26.0,25.008,1.0,1.0,1.0
26.04,20.0,1.0,1.0,1.0
26.08,43.504,1.0,1.0,1.0
26.12,25.496,1.0,1.0,1.0
26.16,29.496,1.0,1.0,1.0
26.2,23.504,1.0,1.0,1.0
26.24,12.504,1.0,1.0,1.0
26.28,20.496,1.0,1.0,1.0
26.32,18.0,1.0,1.0,1.0
26.36,21.0,1.0,1.0,1.0
26.4,17.504,1.0,1.0,1.0
26.44,24.008,1.0,1.0,1.0
26.48,26.008,1.0,1.0,1.0
26.52,17.504,1.0,1.0,1.0
26.56,22.0,1.0,1.0,1.0
26.6,20.0,1.0,1.0,1.0
26.64,8.0,1.0,1.0,1.0
26.68,29.008,1.0,1.0,1.0
26.72,19.0,1.0,1.0,1.0
26.76,17.0,1.0,1.0,1.0
26.8,22.0,1.0,1.0,1.0
26.84,8.0,1.0,1.0,1.0
26.88,10.0,1.0,1.0,1.0
26.92,13.0,1.0,1.0,1.0
26.96,9.0,1.0,1.0,1.0
27.0,17.504,1.0,1.0,1.0
27.04,22.008,1.0,1.0,1.0
27.08,24.496,1.0,1.0,1.0
27.12,13.0,1.0,1.0,1.0
27.16,14.496,1.0,1.0,1.0
27.2,12.0,1.0,1.0,1.0
27.24,15.0,1.0,1.0,1.0
27.28,17.0,1.0,1.0,1.0
27.32,28.0,1.0,1.0,1.0
27.36,7.0,1.0,1.0,1.0
27.4,9.0,1.0,1.0,1.0
27.44,9.0,1.0,1.0,1.0
27.48,19.0,1.0,1.0,1.0
27.52,26.504,1.0,1.0,1.0
27.56,7.496,1.0,1.0,1.0
27.6,17.504,1.0,1.0,1.0
27.64,20.504,1.0,1.0,1.0
27.68,5.0,1.0,1.0,1.0
27.72,16.504,1.0,1.0,1.0
27.76,16.0,1.0,1.0,1.0
27.8,12.496,1.0,1.0,1.0
27.84,13.504,1.0,1.0,1.0
27.88,6.0,1.0,1.0,1.0
27.92,20.0,1.0,1.0,1.0
27.96,25.008,1.0,1.0,1.0
28.0,23.504,1.0,1.0,1.0

File: 22169_SL(CO)L_001_XRD_2-Theta_Omega.asc
*TYPE		=  Raw
*CLASS		=  ASCII CLASS
*SAMPLE		=
*COMMENT	=
*FNAME		=  22169_SL(CO)L_001_XRD_2-Theta_Omega.asc
*DATE		=  19-Dec-22 20:17

*GROUP_COUNT	=  1
*GONIO		=  SmartLab(In-plane), 0.000000
*ATTACHMENT	=  Z-Phi Stage
*ASC		=  0, 0, 0.000000, 0.000000
*I_MONOCHRO	=  Ge(220)x2, 0.000000
*FILTER		=  None
*C_MONOCHRO	=  None, 0.000000
*SLIT_NAME	=  0, Incident slit
*SLIT_NAME	=  1, Receiving slit # 1
*SLIT_NAME	=  2, Receiving slit # 2
*COUNTER	=  D/teX Ultra 250, 0
*POS_FORMAT	=  0
*SCAN_AXIS	=  2Theta/Omega
*MEAS_MODE	=  Continuous Scanning
*TARGET		=  29
*XRAY_CHAR	=  K-ALPHA1
*WAVE_LENGTH1	=  1.54059
*WAVE_LENGTH2	=  1.54441
*THICKNESS	=  0, 0.000000
*MU		=  0, 0.000000
*SCAN_MODE	=  2Theta/Omega
*SPEED_DIM	=  sec./step
*XUNIT		=  deg.
*YUNIT		=  counts
*SCALE_MODE	=  1
*REP_COUNT	=  0
*SE_COUNT	=  0
*STD_MATERIAL	=  Unknown, Unknown, 0.000000, 0.000000, 0.000000, 0.000000, 0.000000, 0.000000
*LATT_CONS	=  0, Unknown, Unknown, 0.000000, 0.000000, 0.000000, 0.000000, 0.000000, 0.000000
*SEC_COUNT	=  1
*TSPEC_SIZE	=  0
*EXTRA_SIZE	=  0
*MEMO		=

*BEGIN
*GROUP		=  0
*START		=  18
*STOP		=  28
*STEP		=  0.01
*OFFSET		=  0.038
*SPEED		=  23.9588
*SLIT_SPEC	=  0, 0.400mm, 0.4, 0.000000
*SLIT_SPEC	=  1, 0.400mm, 0.4, 0.000000
*SLIT_SPEC	=  2, 0.400mm, 0.4, 0.000000
*KV		=  40
*MA		=  30
*LOW		=  0.000000
*HIGH		=  0.000000
*CTEMPER	=  0, 0.000000
*CTEMPER	=  1, 0.000000
*CTEMPER	=  2, 0.000000
*PAREX		=  0, 0.000000
*PAREX		=  1, 0.000000
*PAREX		=  2, 0.000000
*PAREX		=  3, 0.000000
*PAREX		=  4, 0.000000
*PAREX		=  5, 0.000000
*PAREX		=  6, 0.000000
*PAREX		=  7, 0.000000
*PAREX		=  8, 0.000000
*PAREX		=  9, 0.000000
*PAREX		=  10, 0.000000
*PAREX		=  11, 0.000000
*PAREX		=  12, 0.000000
*PAREX		=  13, 0.000000
*PAREX		=  14, 0.000000
*PAREX		=  15, 0.000000
*FULL_SCALE	=  207707
*INDEX		=  0, 0, 0
*COUNT		=  1001
33, 66.496, 37.496, 54.504
41, 28.496, 52.504, 38
26.504, 47.496, 27.496, 40
50.008, 53.992, 39.504, 46
35, 32.496, 26, 48.504
33.504, 34.992, 39.504, 25
41, 50.008, 35.496, 36.992
38.504, 44.496, 29.5199, 44.4881
38.992, 48, 22.504, 37.496
31, 28.504, 34.496, 25
57.504, 43, 36.496, 43
27, 43, 29, 39
40.008, 35.992, 49.504, 39.504
37, 28.496, 30.504, 29.992
33, 39, 28.504, 19.496
28.504, 36, 41, 45
31, 43, 48.504, 32.496
57.496, 37.504, 46.504, 63
14.992, 40, 43, 33
26.504, 40.496, 29, 28.504
54.008, 40.496, 48, 43.496
33, 37.496, 46.0159, 89.9841
30, 36, 36, 26
42.504, 44.496, 27, 31
39, 40, 28, 38
34.5119, 42.4881, 37, 40
44, 32.504, 41.496, 45.504
39.496, 38, 38, 32
53.008, 52, 38.992, 25.504
41.008, 47.4881, 20.008, 39.504
40.992, 28.496, 54, 43.504
26, 45.504, 25.496, 41.504
48.992, 51, 32.504, 41
47.496, 55, 23.504, 37
32, 53, 37.504, 37.496
53.496, 47.504, 27, 40.496
44, 49, 36, 44.504
28, 33.496, 36.504, 48
31.496, 24.504, 32.504, 26.992
34, 45, 29.008, 38.992
25.504, 47.496, 50, 42
23.504, 23.496, 25.504, 33
32.496, 43.504, 30.496, 39.5119
36.4881, 47.5119, 38.496, 48.496
35.496, 33, 29.504, 41.496
39, 40.5119, 36.992, 22
35.504, 44.496, 36.496, 51.504
35.496, 22, 51, 63.504
31, 39, 43, 47.496
54.0239, 41.9761, 50.504, 59.504
63.504, 51.4881, 53.5119, 55.496
86, 66.504, 66.496, 45.992
49.504, 53, 59.504, 60
79.992, 63.008, 78.496, 76
60.008, 49.992, 82.008, 58.4881
68.504, 55.504, 54, 77
67.0159, 43.9761, 44, 61.5119
47.4881, 50, 53, 52
43, 50.008, 27.992, 60.504
26, 41.504, 50, 59.008
45.4881, 52, 47, 50.008
17.4881, 40.504, 52.504, 38.496
47.504, 34.992, 36.504, 24.496
39, 44.008, 30.496, 46.496
37.504, 42, 30.504, 41
39.992, 47.0159, 56.4881, 48.496
33, 33, 52, 42.008
53.992, 48.008, 34.992, 35
37, 16.504, 38.496, 49.008
33.504, 42.992, 40.504, 38.504
40.992, 32, 40.496, 51.504
58.496, 43, 50, 47.008
46.992, 34.008, 30.496, 45.496
55.008, 43.008, 38.4881, 41.008
46.4881, 56.5279, 36.4721, 46
33, 43.008, 42.992, 41
61.504, 47.496, 45, 30
40.008, 44, 53.992, 52
45, 63.008, 51, 85.496
69.504, 68.496, 67.496, 53.5119
84, 81.496, 73.504, 97.504
99.992, 85.008, 106.488, 104.512
100.496, 110.504, 103, 128.488
118, 119.008, 126, 110
118.496, 133, 156, 158.504
142, 158, 153, 160.496
178.496, 187, 174.512, 186
164.496, 163.016, 188.496, 204.984
152.52, 220.488, 180.496, 199
175.512, 174.488, 188, 174.992
167.512, 153, 173, 157.992
152.496, 137.008, 129.504, 114.504
138, 136.488, 120.992, 116.512
127, 142.992, 122.008, 124.504
135.496, 145.488, 140.504, 135.512
156, 152.008, 177.488, 217.504
188.512, 270, 256.008, 299.488
342, 394.528, 412.496, 439.488
484.016, 556.496, 575.032, 621.984
664.968, 718.512, 746.52, 738.496
849.008, 826.512, 856.472, 870.52
893.984, 908.512, 949.008, 921
901.504, 866.976, 862.016, 869
857.976, 849.512, 799.008, 748.976
783.496, 745.016, 713.008, 703.488
683, 685.488, 730.544, 637.984
667.472, 722.008, 617.976, 628.008
568.512, 561.488, 516.536, 524.488
513.992, 523.48, 520.496, 391.512
468.52, 428.976, 425.496, 422
393.024, 350.472, 330.008, 317.496
322.992, 256.016, 288.984, 255.512
271.984, 265, 247.496, 221.512
236, 273.52, 263.472, 293.008
309.512, 341.984, 367.008, 383.488
455.512, 485.496, 522.52, 660.504
700.52, 744.496, 894, 1020.02
1069.01, 1285.5, 1455.54, 1563
1746.02, 1923.04, 1933.96, 2125.54
2349.96, 2465.04, 2698.56, 2727.44
2835.6, 3008.98, 3114.98, 3355.02
3215.98, 3239.04, 3314.01, 3294.98
3346.08, 3243.9, 3260.01, 3164.94
3119.58, 2921.98, 2829.94, 2845.47
2715.51, 2694.51, 2566.46, 2424.08
2353.94, 2265.51, 2258, 2266.52
2231.95, 2089.02, 2194.47, 2120.51
2063, 2065.97, 2067.03, 2089.5
2149.46, 2106.52, 2105.55, 2252
2194.51, 2360.46, 2475.59, 2520.45
2661.58, 2741.94, 2822.56, 3086.46
3286.03, 3576.56, 3888.02, 4105.52
4688.58, 5189.63, 5950, 6914.45
8156.21, 9644.11, 11793.2, 15376.4
20980, 30688.5, 53637.8, 164611
1034072.7, 2942643.3, 4022080, 3752570.5
2443068.5, 1589418.9, 1444174, 854483
450745, 269748, 163684, 102353
68491.7, 45557.9, 30292.2, 21331.8
15423.5, 11014.3, 8312.83, 6474.89
4979.9, 4044.93, 3155.94, 2619.97
2266.97, 1947.96, 1717.52, 1603.5
1407.94, 1209, 1144.54, 970.992
988.952, 851.024, 821.488, 750.976
702.016, 651.016, 581.952, 549.528
517.992, 518.48, 477.992, 445.504
415.984, 384.016, 358.992, 374.504
313.984, 343.52, 294.504, 242.512
236.984, 268.992, 227.984, 239.008
250.016, 204, 207.488, 231.016
175.496, 174.496, 192.976, 179.016
188.504, 160.488, 184, 161.512
165.488, 154.496, 161.512, 150.016
132.48, 160.992, 141, 150
151.504, 153.992, 116.008, 134
100.504, 117, 100.992, 118.504
123.504, 96.992, 108.496, 79
87.5119, 70.992, 65, 75.504
90.992, 63.504, 84.008, 65.496
80.992, 71.008, 67.992, 62.504
58.008, 42.496, 63.496, 69
67.504, 52, 63.496, 52.496
58.504, 38.504, 61.992, 63.504
66.008, 77.504, 81.4881, 65
62, 80.008, 58.992, 65
65.504, 80.496, 73.496, 63.504
72, 72.496, 61.008, 78.496
60.496, 47.504, 56.496, 45.008
85.992, 55.008, 56.504, 42.4881
46.008, 58.496, 42.496, 59
41.504, 42.496, 40.008, 22.496
46.496, 32.504, 30, 24
48, 25.496, 24, 32
20, 23, 20, 23.504
31.504, 24.992, 17.008, 26.992
16, 33, 35, 31.008
28.992, 16, 29.504, 19.496
26, 30, 27, 19
28.504, 36.496, 21.504, 27.496
28, 28.504, 41.496, 28.008
36.992, 33.504, 29.504, 41.992
12, 35.5119, 20.4881, 24
22, 18.008, 17.992, 9
36, 41.504, 35, 20.496
19, 23, 26, 24.008
19.992, 50.008, 24.992, 32
26, 22.504, 16.504, 27.992
38.504, 26, 8.49602, 24.008
31, 17.992, 11.504, 14.496
23, 16, 16.504, 22.496
24.504, 31.496, 23.504, 17.496
27, 10, 6, 22.504
24.496, 25, 27.008, 26.496
20.496, 23, 23, 10
24, 23.504, 28.496, 25.504
32.504, 16.496, 25.496, 20
22.008, 22.992, 27.504, 15.496
27, 26, 22, 25
19, 27.008, 24.992, 33.504
23.496, 26, 9, 19
25.008, 28.992, 21, 22
20, 22.504, 30.496, 25
43.504, 20.496, 26, 28.008
25.496, 24.496, 18, 20.504
29.496, 27, 35, 30
23.504, 29.496, 16.504, 20.496
12.504, 24.496, 14.504, 18
20.496, 14.504, 11.496, 19
18, 20, 20, 8
21, 18, 25, 16
17.504, 31, 26.504, 14.992
24.008, 15.496, 25.496, 16
26.008, 21.496, 17.496, 20
17.504, 16.496, 16, 12
22, 22, 17, 22
20, 6, 21, 17
8, 68, 8, 18
29.008, 9.99203, 6, 21
19, 14, 25, 18
17, 5, 20, 8
22, 23.504, 12.496, 18
8, 21, 9.50398, 15.496
10, 22, 31, 15
13, 15, 21, 15
9, 10.008, 15.992, 20
17.504, 19.496, 4, 9
22.008, 17.992, 16, 15.504
24.496, 23, 20, 14
13, 14, 19.504, 19
14.496, 17, 14, 16
12, 9, 11.504, 21.496
15, 16.504, 22.504, 21.992
17, 17.504, 20.496, 26.504
28, 14.496, 11.5119, 24.4881
7, 8, 14, 15
9, 14.008, 8.99203, 17
9, 12, 13, 16
19, 12.008, 12.992, 13
26.504, 9, 15.496, 12.504
7.49602, 17.504, 22.496, 13
17.504, 22, 0.496017, 25
20.504, 14.496, 15, 19
5, 9.50398, 25, 17.496
16.504, 14, 13.496, 5
16, 5, 13.504, 23
12.496, 7, 7, 18
13.504, 4.49602, 10.504, 19.496
6, 9.50398, 7.49602, 28.504
20, 9.49602, 5, 13
25.008, 8.49602, 15.496, 14.504
23.504
*END

*EOF

File: 22169_SL(CO)L_002_XRD.csv
#twotheta, yobs, ycal, bkg, diff
42.0,66.0,1.0,1.0,1.0
42.04,49.5056,1.0,1.0,1.0
42.08,82.0,1.0,1.0,1.0
42.12,62.5056,1.0,1.0,1.0
42.16,59.9889,1.0,1.0,1.0
42.2,61.4944,1.0,1.0,1.0
42.24,59.9889,1.0,1.0,1.0
42.28,68.0111,1.0,1.0,1.0
42.32,58.0,1.0,1.0,1.0
42.36,87.0,1.0,1.0,1.0
42.4,61.0111,1.0,1.0,1.0
42.44,58.0,1.0,1.0,1.0
42.48,74.5167,1.0,1.0,1.0
42.52,76.9778,1.0,1.0,1.0
42.56,61.9889,1.0,1.0,1.0
42.6,79.5056,1.0,1.0,1.0
42.64,86.0,1.0,1.0,1.0
42.68,64.9889,1.0,1.0,1.0
42.72,76.5056,1.0,1.0,1.0
42.76,88.4944,1.0,1.0,1.0
42.8,76.0222,1.0,1.0,1.0
42.84,64.0111,1.0,1.0,1.0
42.88,74.0222,1.0,1.0,1.0
42.92,101.5167,1.0,1.0,1.0
42.96,81.4944,1.0,1.0,1.0
43.0,80.5056,1.0,1.0,1.0
43.04,82.0,1.0,1.0,1.0
43.08,89.0,1.0,1.0,1.0
43.12,68.5056,1.0,1.0,1.0
43.16,78.4944,1.0,1.0,1.0
43.2,70.4944,1.0,1.0,1.0
43.24,53.5056,1.0,1.0,1.0
43.28,68.4944,1.0,1.0,1.0
43.32,69.4944,1.0,1.0,1.0
43.36,76.0,1.0,1.0,1.0
43.4,71.4722,1.0,1.0,1.0
43.44,115.0,1.0,1.0,1.0
43.48,77.5056,1.0,1.0,1.0
43.52,101.9778,1.0,1.0,1.0
43.56,92.5056,1.0,1.0,1.0
43.6,76.0111,1.0,1.0,1.0
43.64,92.4944,1.0,1.0,1.0
43.68,80.4833,1.0,1.0,1.0
43.72,73.5056,1.0,1.0,1.0
43.76,53.0,1.0,1.0,1.0
43.8,53.0,1.0,1.0,1.0
43.84,68.5056,1.0,1.0,1.0
43.88,76.0,1.0,1.0,1.0
43.92,75.4944,1.0,1.0,1.0
43.96,93.9889,1.0,1.0,1.0
44.0,88.0,1.0,1.0,1.0
44.04,110.5167,1.0,1.0,1.0
44.08,103.5167,1.0,1.0,1.0
44.12,113.5056,1.0,1.0,1.0
44.16,106.4944,1.0,1.0,1.0
44.2,121.4833,1.0,1.0,1.0
44.24,143.5056,1.0,1.0,1.0
44.28,159.0,1.0,1.0,1.0
44.32,142.4944,1.0,1.0,1.0
44.36,136.4944,1.0,1.0,1.0
44.4,168.5278,1.0,1.0,1.0
44.44,194.0111,1.0,1.0,1.0
44.48,172.0,1.0,1.0,1.0
44.52,194.9889,1.0,1.0,1.0
44.56,160.4833,1.0,1.0,1.0
44.6,217.0111,1.0,1.0,1.0
44.64,192.5056,1.0,1.0,1.0
44.68,216.9889,1.0,1.0,1.0
44.72,268.0,1.0,1.0,1.0
44.76,315.0,1.0,1.0,1.0
44.8,344.4944,1.0,1.0,1.0
44.84,484.4944,1.0,1.0,1.0
44.88,581.5167,1.0,1.0,1.0
44.92,730.5389,1.0,1.0,1.0
44.96,828.5278,1.0,1.0,1.0
45.0,1021.48,1.0,1.0,1.0
45.04,1237.49,1.0,1.0,1.0
45.08,1285.06,1.0,1.0,1.0
45.12,1399.58,1.0,1.0,1.0
45.16,1405.01,1.0,1.0,1.0
45.2,1338.03,1.0,1.0,1.0
45.24,1288.97,1.0,1.0,1.0
45.28,1148.99,1.0,1.0,1.0
45.32,1040.02,1.0,1.0,1.0
45.36,932.4944,1.0,1.0,1.0
45.4,1041.97,1.0,1.0,1.0
45.44,1176.97,1.0,1.0,1.0
45.48,1563.48,1.0,1.0,1.0
45.52,2081.58,1.0,1.0,1.0
45.56,2609.0,1.0,1.0,1.0
45.6,3148.47,1.0,1.0,1.0
45.64,3820.02,1.0,1.0,1.0
45.68,4239.52,1.0,1.0,1.0
45.72,4446.561,1.0,1.0,1.0
45.76,4816.02,1.0,1.0,1.0
45.8,4723.89,1.0,1.0,1.0
45.84,4754.96,1.0,1.0,1.0
45.88,4521.92,1.0,1.0,1.0
45.92,4217.49,1.0,1.0,1.0
45.96,3718.98,1.0,1.0,1.0
46.0,3281.91,1.0,1.0,1.0
46.04,2948.74,1.0,1.0,1.0
46.08,2366.439,1.0,1.0,1.0
46.12,2131.02,1.0,1.0,1.0
46.16,2124.04,1.0,1.0,1.0
46.2,2353.45,1.0,1.0,1.0
46.24,2939.97,1.0,1.0,1.0
46.28,3876.52,1.0,1.0,1.0
46.32,5216.439,1.0,1.0,1.0
46.36,6941.96,1.0,1.0,1.0
46.4,8750.35,1.0,1.0,1.0
46.44,10158,1.0,1.0,1.0
46.48,11667.4,1.0,1.0,1.0
46.52,12647.4,1.0,1.0,1.0
46.56,13208.417,1.0,1.0,1.0
46.6,12940.1,1.0,1.0,1.0
46.64,12598.3,1.0,1.0,1.0
46.68,11638.5,1.0,1.0,1.0
46.72,10697.5,1.0,1.0,1.0
46.76,9629.53,1.0,1.0,1.0
46.8,8462.99,1.0,1.0,1.0
46.84,7362.97,1.0,1.0,1.0
46.88,6736.99,1.0,1.0,1.0
46.92,5845.57,1.0,1.0,1.0
46.96,5200.03,1.0,1.0,1.0
47.0,4521.02,1.0,1.0,1.0
47.04,3988.53,1.0,1.0,1.0
47.08,3349.63,1.0,1.0,1.0
47.12,3010.38,1.0,1.0,1.0
47.16,2372.48,1.0,1.0,1.0
47.2,2120.45,1.0,1.0,1.0
47.24,1733.04,1.0,1.0,1.0
47.28,1557.01,1.0,1.0,1.0
47.32,1524.56,1.0,1.0,1.0
47.36,1612.99,1.0,1.0,1.0
47.4,1865.06,1.0,1.0,1.0
47.44,2111.53,1.0,1.0,1.0
47.48,2646.99,1.0,1.0,1.0
47.52,3069.99,1.0,1.0,1.0
47.56,3638.55,1.0,1.0,1.0
47.6,3982.439,1.0,1.0,1.0
47.64,4867.9,1.0,1.0,1.0
47.68,5600.79,1.0,1.0,1.0
47.72,7610.09,1.0,1.0,1.0
47.76,11228.3,1.0,1.0,1.0
47.8,22639.3,1.0,1.0,1.0
47.84,152552,1.0,1.0,1.0
47.88,9135124.0,1.0,1.0,1.0
47.92,4334026.0,1.0,1.0,1.0
47.96,1885580.0,1.0,1.0,1.0
48.0,441926,1.0,1.0,1.0
48.04,140198,1.0,1.0,1.0
48.08,60822.2,1.0,1.0,1.0
48.12,23845.666,1.0,1.0,1.0
48.16,11190.6,1.0,1.0,1.0
48.2,5828.51,1.0,1.0,1.0
48.24,3336.01,1.0,1.0,1.0
48.28,2256.54,1.0,1.0,1.0
48.32,1593.97,1.0,1.0,1.0
48.36,1191.03,1.0,1.0,1.0
48.4,933.5167,1.0,1.0,1.0
48.44,688.5056,1.0,1.0,1.0
48.48,547.0111,1.0,1.0,1.0
48.52,473.5167,1.0,1.0,1.0
48.56,388.0,1.0,1.0,1.0
48.6,407.4833,1.0,1.0,1.0
48.64,345.5389,1.0,1.0,1.0
48.68,342.5167,1.0,1.0,1.0
48.72,384.0111,1.0,1.0,1.0
48.76,351.4389,1.0,1.0,1.0
48.8,319.5167,1.0,1.0,1.0
48.84,317.0111,1.0,1.0,1.0
48.88,248.4833,1.0,1.0,1.0
48.92,242.9778,1.0,1.0,1.0
48.96,234.4944,1.0,1.0,1.0
49.0,193.0,1.0,1.0,1.0
49.04,186.4944,1.0,1.0,1.0
49.08,180.4722,1.0,1.0,1.0
49.12,150.4944,1.0,1.0,1.0
49.16,155.9889,1.0,1.0,1.0
49.2,150.4944,1.0,1.0,1.0
49.24,118.4944,1.0,1.0,1.0
49.28,113.9778,1.0,1.0,1.0
49.32,112.9778,1.0,1.0,1.0
49.36,75.0111,1.0,1.0,1.0
49.4,93.0111,1.0,1.0,1.0
49.44,118.4944,1.0,1.0,1.0
49.48,84.5056,1.0,1.0,1.0
49.52,83.0,1.0,1.0,1.0
49.56,67.0,1.0,1.0,1.0
49.6,93.4944,1.0,1.0,1.0
49.64,89.0,1.0,1.0,1.0
49.68,70.0,1.0,1.0,1.0
49.72,78.0,1.0,1.0,1.0
49.76,72.0,1.0,1.0,1.0
49.8,71.0,1.0,1.0,1.0
49.84,71.5056,1.0,1.0,1.0
49.88,49.4833,1.0,1.0,1.0
49.92,72.4833,1.0,1.0,1.0
49.96,69.5056,1.0,1.0,1.0
50.0,67.4944,1.0,1.0,1.0
50.04,67.5056,1.0,1.0,1.0
50.08,61.5056,1.0,1.0,1.0
50.12,74.5167,1.0,1.0,1.0
50.16,69.0111,1.0,1.0,1.0
50.2,67.9889,1.0,1.0,1.0
50.24,57.5056,1.0,1.0,1.0
50.28,61.5167,1.0,1.0,1.0
50.32,52.4944,1.0,1.0,1.0
50.36,63.9889,1.0,1.0,1.0
50.4,106.5056,1.0,1.0,1.0
50.44,58.0,1.0,1.0,1.0
50.48,52.0,1.0,1.0,1.0
50.52,65.5167,1.0,1.0,1.0
50.56,48.5056,1.0,1.0,1.0
50.6,74.4833,1.0,1.0,1.0
50.64,40.5167,1.0,1.0,1.0
50.68,60.0,1.0,1.0,1.0
50.72,46.9889,1.0,1.0,1.0
50.76,62.0,1.0,1.0,1.0
50.8,56.4944,1.0,1.0,1.0
50.84,47.0111,1.0,1.0,1.0
50.88,44.5167,1.0,1.0,1.0
50.92,37.0111,1.0,1.0,1.0
50.96,51.4944,1.0,1.0,1.0
51.0,50.0,1.0,1.0,1.0
51.04,61.0111,1.0,1.0,1.0
51.08,71.9889,1.0,1.0,1.0
51.12,60.0,1.0,1.0,1.0
51.16,45.0,1.0,1.0,1.0
51.2,32.4944,1.0,1.0,1.0
51.24,60.5056,1.0,1.0,1.0
51.28,65.5056,1.0,1.0,1.0
51.32,63.0111,1.0,1.0,1.0
51.36,51.0222,1.0,1.0,1.0
51.4,42.5056,1.0,1.0,1.0
51.44,30.4944,1.0,1.0,1.0
51.48,59.4944,1.0,1.0,1.0
51.52,33.0,1.0,1.0,1.0
51.56,45.4944,1.0,1.0,1.0
51.6,49.0111,1.0,1.0,1.0
51.64,58.9778,1.0,1.0,1.0
51.68,52.4833,1.0,1.0,1.0
51.69,37.0222,1.0,1.0,1.0