Folder: Analysis/XRD:XRR/SCO/22164_SL(CO)L

File: 22164_SL(CO)L_002_XRD.csv
#twotheta, yobs, ycal, bkg, diff
40.0,36.5278,1.0,1.0,1.0
40.05,22.5056,1.0,1.0,1.0
40.1,37.0111,1.0,1.0,1.0
40.15,30.4944,1.0,1.0,1.0
40.2,31.5056,1.0,1.0,1.0
40.25,40.5056,1.0,1.0,1.0
40.3,30.5056,1.0,1.0,1.0
40.35,27.0,1.0,1.0,1.0
40.4,32.4944,1.0,1.0,1.0
40.45,23.0,1.0,1.0,1.0
40.5,33.4944,1.0,1.0,1.0
40.55,45.0111,1.0,1.0,1.0
40.6,26.0,1.0,1.0,1.0
40.65,34.5056,1.0,1.0,1.0
40.7,21.0,1.0,1.0,1.0
40.75,25.0,1.0,1.0,1.0
40.8,18.0,1.0,1.0,1.0
40.85,22.0,1.0,1.0,1.0
40.9,20.0,1.0,1.0,1.0
40.95,19.0,1.0,1.0,1.0
41.0,32.0,1.0,1.0,1.0
41.05,23.5056,1.0,1.0,1.0
41.1,27.0,1.0,1.0,1.0
41.15,32.0,1.0,1.0,1.0
41.2,32.4944,1.0,1.0,1.0
41.25,37.4944,1.0,1.0,1.0
41.3,30.0,1.0,1.0,1.0
41.35,38.4833,1.0,1.0,1.0
41.4,40.9889,1.0,1.0,1.0
41.45,44.0,1.0,1.0,1.0
41.5,36.5056,1.0,1.0,1.0
41.55,39.0,1.0,1.0,1.0
41.6,30.0,1.0,1.0,1.0
41.65,26.5056,1.0,1.0,1.0
41.7,32.4944,1.0,1.0,1.0
41.75,35.4944,1.0,1.0,1.0
41.8,38.4944,1.0,1.0,1.0
41.85,34.5056,1.0,1.0,1.0
41.9,23.0,1.0,1.0,1.0
41.95,38.0111,1.0,1.0,1.0
42.0,42.0,1.0,1.0,1.0
42.05,34.0,1.0,1.0,1.0
42.1,28.4944,1.0,1.0,1.0
42.15,32.9889,1.0,1.0,1.0
42.2,29.4944,1.0,1.0,1.0
42.25,31.0,1.0,1.0,1.0
42.3,29.9889,1.0,1.0,1.0
42.35,31.0,1.0,1.0,1.0
42.4,62.0111,1.0,1.0,1.0
42.45,38.4944,1.0,1.0,1.0
42.5,42.4944,1.0,1.0,1.0
42.55,29.0111,1.0,1.0,1.0
42.6,48.0,1.0,1.0,1.0
42.65,51.0,1.0,1.0,1.0
42.7,33.0111,1.0,1.0,1.0
42.75,43.0,1.0,1.0,1.0
42.8,42.5056,1.0,1.0,1.0
42.85,64.4944,1.0,1.0,1.0
42.9,35.0111,1.0,1.0,1.0
42.95,38.0,1.0,1.0,1.0
43.0,33.5056,1.0,1.0,1.0
43.05,39.0,1.0,1.0,1.0
43.1,46.5056,1.0,1.0,1.0
43.15,22.0,1.0,1.0,1.0
43.2,25.5056,1.0,1.0,1.0
43.25,40.0,1.0,1.0,1.0
43.3,31.0,1.0,1.0,1.0
43.35,35.4944,1.0,1.0,1.0
43.4,36.0,1.0,1.0,1.0
43.45,35.0111,1.0,1.0,1.0
43.5,31.4944,1.0,1.0,1.0
43.55,36.0,1.0,1.0,1.0
43.6,29.5056,1.0,1.0,1.0
43.65,39.0,1.0,1.0,1.0
43.7,46.4944,1.0,1.0,1.0
43.75,23.0,1.0,1.0,1.0
43.8,49.4944,1.0,1.0,1.0
43.85,51.5056,1.0,1.0,1.0
43.9,57.5056,1.0,1.0,1.0
43.95,66.0111,1.0,1.0,1.0
44.0,89.9778,1.0,1.0,1.0
44.05,109.0,1.0,1.0,1.0
44.1,77.0,1.0,1.0,1.0
44.15,80.4833,1.0,1.0,1.0
44.2,97.0,1.0,1.0,1.0
44.25,103.5167,1.0,1.0,1.0
44.3,111.0111,1.0,1.0,1.0
44.35,139.5056,1.0,1.0,1.0
44.4,165.0333,1.0,1.0,1.0
44.45,208.0111,1.0,1.0,1.0
44.5,220.4944,1.0,1.0,1.0
44.55,274.5389,1.0,1.0,1.0
44.6,280.9667,1.0,1.0,1.0
44.65,308.9778,1.0,1.0,1.0
44.7,308.4722,1.0,1.0,1.0
44.75,296.55,1.0,1.0,1.0
44.8,226.0222,1.0,1.0,1.0
44.85,162.9889,1.0,1.0,1.0
44.9,184.0,1.0,1.0,1.0
44.95,189.0,1.0,1.0,1.0
45.0,181.0111,1.0,1.0,1.0
45.05,177.5056,1.0,1.0,1.0
45.1,279.5167,1.0,1.0,1.0
45.15,402.9778,1.0,1.0,1.0
45.2,586.4722,1.0,1.0,1.0
45.25,769.4722,1.0,1.0,1.0
45.3,1082.02,1.0,1.0,1.0
45.35,1354.51,1.0,1.0,1.0
45.4,1545.44,1.0,1.0,1.0
45.45,1714.0,1.0,1.0,1.0
45.5,1783.43,1.0,1.0,1.0
45.55,1705.49,1.0,1.0,1.0
45.6,1697.55,1.0,1.0,1.0
45.65,1695.97,1.0,1.0,1.0
45.7,1615.02,1.0,1.0,1.0
45.75,1488.53,1.0,1.0,1.0
45.8,1203.0,1.0,1.0,1.0
45.85,876.9778,1.0,1.0,1.0
45.9,632.5056,1.0,1.0,1.0
45.95,599.5056,1.0,1.0,1.0
46.0,801.9667,1.0,1.0,1.0
46.05,1140.48,1.0,1.0,1.0
46.1,1733.01,1.0,1.0,1.0
46.15,2679.41,1.0,1.0,1.0
46.2,3731.02,1.0,1.0,1.0
46.25,4692.91,1.0,1.0,1.0
46.3,5647.07,1.0,1.0,1.0
46.35,6159.53,1.0,1.0,1.0
46.4,6410.561,1.0,1.0,1.0
46.45,6689.08,1.0,1.0,1.0
46.5,7121.66,1.0,1.0,1.0
46.55,7408.58,1.0,1.0,1.0
46.6,7523.74,1.0,1.0,1.0
46.65,7203.14,1.0,1.0,1.0
46.7,6384.0,1.0,1.0,1.0
46.75,5541.92,1.0,1.0,1.0
46.8,4661.37,1.0,1.0,1.0
46.85,3751.47,1.0,1.0,1.0
46.9,3053.52,1.0,1.0,1.0
46.95,2629.03,1.0,1.0,1.0
47.0,2224.01,1.0,1.0,1.0
47.05,2409.98,1.0,1.0,1.0
47.1,3018.55,1.0,1.0,1.0
47.15,3745.561,1.0,1.0,1.0
47.2,4576.39,1.0,1.0,1.0
47.25,4765.57,1.0,1.0,1.0
47.3,4339.0,1.0,1.0,1.0
47.35,3600.1,1.0,1.0,1.0
47.4,2700.0,1.0,1.0,1.0
47.45,2086.01,1.0,1.0,1.0
47.5,1629.55,1.0,1.0,1.0
47.55,1499.93,1.0,1.0,1.0
47.6,1846.01,1.0,1.0,1.0
47.65,2344.52,1.0,1.0,1.0
47.7,3482.51,1.0,1.0,1.0
47.75,5325.99,1.0,1.0,1.0
47.8,9560.34,1.0,1.0,1.0
47.85,24326,1.0,1.0,1.0
47.9,161718,1.0,1.0,1.0
47.95,13230557.0,1.0,1.0,1.0
48.0,340290,1.0,1.0,1.0
48.05,70426,1.0,1.0,1.0
48.1,22643.2,1.0,1.0,1.0
48.15,9269.13,1.0,1.0,1.0
48.2,4345.52,1.0,1.0,1.0
48.25,2559.52,1.0,1.0,1.0
48.3,1734.51,1.0,1.0,1.0
48.35,1239.07,1.0,1.0,1.0
48.4,891.5833,1.0,1.0,1.0
48.45,664.5056,1.0,1.0,1.0
48.5,575.9778,1.0,1.0,1.0
48.55,441.0555,1.0,1.0,1.0
48.6,361.55,1.0,1.0,1.0
48.65,331.55,1.0,1.0,1.0
48.7,261.9667,1.0,1.0,1.0
48.75,215.5056,1.0,1.0,1.0
48.8,194.9889,1.0,1.0,1.0
48.85,170.0,1.0,1.0,1.0
48.9,183.4944,1.0,1.0,1.0
48.95,180.5056,1.0,1.0,1.0
49.0,188.4944,1.0,1.0,1.0
49.05,153.5056,1.0,1.0,1.0
49.1,127.5278,1.0,1.0,1.0
49.15,110.4833,1.0,1.0,1.0
49.2,92.0,1.0,1.0,1.0
49.25,64.5056,1.0,1.0,1.0
49.3,64.4944,1.0,1.0,1.0
49.35,43.4944,1.0,1.0,1.0
49.4,58.4944,1.0,1.0,1.0
49.45,49.9889,1.0,1.0,1.0
49.5,42.0,1.0,1.0,1.0
49.55,55.4944,1.0,1.0,1.0
49.6,55.9889,1.0,1.0,1.0
49.65,52.4944,1.0,1.0,1.0
49.7,51.5056,1.0,1.0,1.0
49.75,35.5056,1.0,1.0,1.0
49.8,49.0,1.0,1.0,1.0
49.85,41.5056,1.0,1.0,1.0
49.9,24.5167,1.0,1.0,1.0
49.95,53.4944,1.0,1.0,1.0
50.0,40.9889,1.0,1.0,1.0
50.05,24.0111,1.0,1.0,1.0
50.1,44.0,1.0,1.0,1.0
50.15,51.0,1.0,1.0,1.0
50.2,24.0,1.0,1.0,1.0
50.25,32.5056,1.0,1.0,1.0
50.3,39.5056,1.0,1.0,1.0
50.35,33.5056,1.0,1.0,1.0
50.4,36.4944,1.0,1.0,1.0
50.45,29.0111,1.0,1.0,1.0
50.5,29.0,1.0,1.0,1.0
50.55,20.0,1.0,1.0,1.0
50.6,27.9889,1.0,1.0,1.0
50.65,43.5056,1.0,1.0,1.0
50.7,28.0,1.0,1.0,1.0
50.75,17.4944,1.0,1.0,1.0
50.8,35.9889,1.0,1.0,1.0
50.85,51.4944,1.0,1.0,1.0
50.9,29.0,1.0,1.0,1.0
50.95,21.5056,1.0,1.0,1.0
51.0,29.5056,1.0,1.0,1.0
51.05,26.4944,1.0,1.0,1.0
51.1,20.4944,1.0,1.0,1.0
51.15,30.0,1.0,1.0,1.0
51.2,41.4944,1.0,1.0,1.0
51.25,27.0,1.0,1.0,1.0
51.3,24.4944,1.0,1.0,1.0
51.35,11.9889,1.0,1.0,1.0
51.4,25.5056,1.0,1.0,1.0
51.45,34.9889,1.0,1.0,1.0
51.5,27.5056,1.0,1.0,1.0
51.55,20.5056,1.0,1.0,1.0
51.6,39.0,1.0,1.0,1.0
51.65,20.5056,1.0,1.0,1.0
51.7,16.0,1.0,1.0,1.0
51.75,37.0,1.0,1.0,1.0
51.8,33.4944,1.0,1.0,1.0
51.85,25.4944,1.0,1.0,1.0
51.9,22.4944,1.0,1.0,1.0
51.95,28.5056,1.0,1.0,1.0
52.0,14.0111,1.0,1.0,1.0
52.05,29.0,1.0,1.0,1.0
52.1,41.9889,1.0,1.0,1.0
52.15,23.4833,1.0,1.0,1.0
52.2,35.4944,1.0,1.0,1.0
52.25,22.5056,1.0,1.0,1.0
52.3,46.0111,1.0,1.0,1.0
52.35,29.4944,1.0,1.0,1.0
52.4,20.0,1.0,1.0,1.0
52.45,17.0,1.0,1.0,1.0
52.5,18.4944,1.0,1.0,1.0
52.55,27.5056,1.0,1.0,1.0
52.6,30.5056,1.0,1.0,1.0
52.65,32.0,1.0,1.0,1.0
52.7,36.9889,1.0,1.0,1.0
52.75,18.4944,1.0,1.0,1.0
52.8,15.0,1.0,1.0,1.0
52.85,19.0,1.0,1.0,1.0
52.9,16.5056,1.0,1.0,1.0
52.95,26.0,1.0,1.0,1.0
53.0,32.9889,1.0,1.0,1.0
53.05,24.4944,1.0,1.0,1.0
53.1,36.0,1.0,1.0,1.0
53.15,21.0,1.0,1.0,1.0
53.2,29.5056,1.0,1.0,1.0
53.25,40.0,1.0,1.0,1.0
53.3,20.0,1.0,1.0,1.0
53.35,33.0,1.0,1.0,1.0
53.4,25.0,1.0,1.0,1.0
53.45,26.0,1.0,1.0,1.0
53.5,10.5056,1.0,1.0,1.0
53.55,24.4944,1.0,1.0,1.0
53.6,17.0,1.0,1.0,1.0
53.65,13.0,1.0,1.0,1.0
53.7,24.0,1.0,1.0,1.0
53.75,19.0,1.0,1.0,1.0
53.8,25.5056,1.0,1.0,1.0
53.85,31.5056,1.0,1.0,1.0
53.9,44.5056,1.0,1.0,1.0
53.95,8.4944,1.0,1.0,1.0
54.0,28.5056,1.0,1.0,1.0

File: 22164_SL(CO)L_002_XRD_2-Theta_Omega.asc
*TYPE		=  Raw
*CLASS		=  ASCII CLASS
*SAMPLE		=
*COMMENT	=
*FNAME		=  22164_SL(CO)L_002_XRD_2-Theta_Omega.asc
*DATE		=  24-Nov-22 18:02

*GROUP_COUNT	=  1
*GONIO		=  SmartLab(In-plane), 0.000000
*ATTACHMENT	=  Z-Phi Stage
*ASC		=  0, 0, 0.000000, 0.000000
*I_MONOCHRO	=  Ge(220)x2, 0.000000
*FILTER		=  None
*C_MONOCHRO	=  None, 0.000000
*SLIT_NAME	=  0, Incident slit
*SLIT_NAME	=  1, Receiving slit # 1
*SLIT_NAME	=  2, Receiving slit # 2
*COUNTER	=  D/teX Ultra 250, 0
*POS_FORMAT	=  0
*SCAN_AXIS	=  2Theta/Omega
*MEAS_MODE	=  Continuous Scanning
*TARGET		=  29
*XRAY_CHAR	=  K-ALPHA1
*WAVE_LENGTH1	=  1.54059
*WAVE_LENGTH2	=  1.54441
*THICKNESS	=  0, 0.000000
*MU		=  0, 0.000000
*SCAN_MODE	=  2Theta/Omega
*SPEED_DIM	=  sec./step
*XUNIT		=  deg.
*YUNIT		=  counts
*SCALE_MODE	=  1
*REP_COUNT	=  0
*SE_COUNT	=  0
*STD_MATERIAL	=  Unknown, Unknown, 0.000000, 0.000000, 0.000000, 0.000000, 0.000000, 0.000000
*LATT_CONS	=  0, Unknown, Unknown, 0.000000, 0.000000, 0.000000, 0.000000, 0.000000, 0.000000
*SEC_COUNT	=  1
*TSPEC_SIZE	=  0
*EXTRA_SIZE	=  0
*MEMO		=

*BEGIN
*GROUP		=  0
*START		=  40
*STOP		=  54
*STEP		=  0.01
*OFFSET		=  0.0334
*SPEED		=  17.1013
*SLIT_SPEC	=  0, 0.600mm, 0.6, 0.000000
*SLIT_SPEC	=  1, 0.600mm, 0.6, 0.000000
*SLIT_SPEC	=  2, 0.600mm, 0.6, 0.000000
*KV		=  40
*MA		=  30
*LOW		=  0.000000
*HIGH		=  0.000000
*CTEMPER	=  0, 0.000000
*CTEMPER	=  1, 0.000000
*CTEMPER	=  2, 0.000000
*PAREX		=  0, 0.000000
*PAREX		=  1, 0.000000
*PAREX		=  2, 0.000000
*PAREX		=  3, 0.000000
*PAREX		=  4, 0.000000
*PAREX		=  5, 0.000000
*PAREX		=  6, 0.000000
*PAREX		=  7, 0.000000
*PAREX		=  8, 0.000000
*PAREX		=  9, 0.000000
*PAREX		=  10, 0.000000
*PAREX		=  11, 0.000000
*PAREX		=  12, 0.000000
*PAREX		=  13, 0.000000
*PAREX		=  14, 0.000000
*PAREX		=  15, 0.000000
*FULL_SCALE	=  1156636.1
*INDEX		=  0, 0, 0
*COUNT		=  1401
36.5278, 36, 24, 35
43.5056, 24.4944, 37.0111, 23.4944
35.5056, 33.4944, 33.4944, 28
28.4944, 40.5056, 31, 35.9889
29.9889, 34.0111, 26, 27
32.4944, 40.5056, 36, 38
24.4944, 21.5056, 33.4944, 24.5056
34, 29, 26, 32.4944
38.4944, 34.5056, 30, 20.4944
24, 43, 32.5056, 25
18, 35.4944, 45.0111, 32.9889
32.4944, 37.5056, 20, 34
35.4944, 31.4944, 20.0111, 25.9889
41.4944, 23.5056, 37.5056, 41
28.9889, 44.0111, 43, 32
32.4944, 35.0111, 29, 22
42.5056, 28, 30, 52
37.0111, 33.9889, 43.0111, 34.5056
33, 44, 31.4944, 38.5056
36.4944, 51, 20, 39
30, 43.4944, 33.5056, 37
44.4944, 32.5056, 32.4944, 40
29.4833, 19.0222, 49.9889, 55.5056
30.4944, 34.5056, 41.4944, 29.5056
32, 32, 30.9889, 38.0111
42, 39, 31, 25.5056
33.4944, 30.5056, 28.4944, 42
36.0111, 32, 38, 43
50.5056, 31, 47, 27.4944
32, 20, 32, 31
62.0111, 33.4944, 43.4944, 45.5167
40.4944, 39, 42.4944, 53.0111
39.9778, 55.0111, 49.0111, 40
39.0111, 51, 61.9889, 42.0111
49, 39.4944, 40.5056, 43
42.5056, 38, 53.9889, 42.5056
50.5167, 37.4944, 35.0111, 56.4944
43.5056, 38, 25.4944, 36
51.0111, 39, 44.4944, 34
40.4944, 34.4944, 19.0111, 22
25.5056, 31, 60, 38
20.9889, 16.0111, 31, 20
27.5056, 29.9889, 46.0111, 51.5056
40.4944, 35.0111, 24.4944, 31.5056
45.4944, 46.4944, 45.5056, 36
29.5056, 49, 36.4944, 60.5056
41, 50, 46.4944, 42.4944
39.9889, 75.5056, 38.5056, 58.4944
58.5056, 51.5056, 72.9889, 55.5056
71.9889, 62.4944, 75.5056, 66.0111
89.9778, 135.011, 97.0111, 109
92, 69.4944, 77, 74.5167
69.5056, 92, 78, 82.4944
82.4944, 103.517, 108.989, 86.4944
138.494, 98.5167, 109.978, 139.506
165.033, 174.472, 184.517, 175
230.517, 199.517, 220.494, 245.483
267.494, 265.978, 293.483, 339.011
314.011, 308.978, 292.517, 285.978
308.506, 284.494, 277.967, 296.55
226.022, 234.989, 279.506, 211
216.483, 197.011, 184, 192.978
191.517, 161.989, 170.494, 186.989
190.483, 177.506, 187.506, 213.989
282.528, 317.461, 358.022, 402.978
586.472, 622.517, 654.967, 748.989
961.033, 969, 1082.02, 1110.46
1307.92, 1430.02, 1485.51, 1514.02
1710.42, 1714, 1792.61, 1784.44
1844.89, 1804.12, 1786.98, 1705.49
1697.55, 1720, 1767.47, 1731.03
1703.92, 1726, 1615.02, 1659.01
1429.02, 1351.54, 1380.43, 1196.03
965.528, 876.978, 810.494, 785.483
669.483, 611.539, 665.472, 599.506
801.967, 812, 886.494, 972.956
1493.52, 1585.97, 1733.01, 1958.98
3001.46, 3123.53, 3276.52, 3613.9
4394.99, 4692.91, 4685.97, 4991.09
5897.93, 6031.54, 6041.45, 6159.53
6410.56, 6504, 6771.41, 6804.97
6896.92, 7114.93, 7121.66, 7141.46
7556.58, 7766.26, 7645.67, 7648.96
7369.52, 7203.14, 6953.46, 6908.92
6059.91, 5799.65, 5733.52, 5541.92
4661.37, 4459.59, 4346.56, 4098.59
3431.06, 3090.01, 3053.52, 3004.91
2493.59, 2306.92, 2318.01, 2253.46
2328.53, 2409.98, 2508.07, 2534.91
3347.81, 3340.03, 3522.49, 3745.56
4576.39, 4588.11, 4664.52, 4744.43
4648.94, 4393.58, 4339, 4257.09
3293.97, 3135.17, 3039.81, 2827.59
2169.48, 2086.01, 1960.47, 1845.12
1609.57, 1523.96, 1507.03, 1499.93
1846.01, 1772.01, 1935.99, 2123.97
3049.52, 3283.49, 3482.51, 3696.48
5756.03, 6749.37, 7479.33, 8383.09
19114.7, 24326, 31658.5, 43293.9
2748864.8, 5577043, 11442470, 13230557
340290, 227190, 162757, 119896
34689.4, 27882.9, 22643.2, 18421.8
7923.19, 6774.73, 5852.04, 5041.56
2786, 2559.52, 2288.47, 2214.09
1502.46, 1406.54, 1339.47, 1239.07
891.583, 847.45, 808.506, 759
606.528, 588.494, 575.978, 502.967
433.461, 395.011, 378.989, 459.494
348.472, 331.55, 316.483, 270.472
254.528, 247.956, 224.528, 215.506
194.989, 192.011, 186.483, 202.506
210.472, 201.528, 183.494, 156
167, 160.483, 201.506, 182.011
149.517, 153.506, 131.967, 145.506
136.989, 84.4944, 103, 110.483
92, 80, 86.0111, 100
82, 68.4944, 64.4944, 73.5056
74.5167, 67, 79.9889, 69.5056
44.0111, 49.9889, 51, 54.4944
50, 48.9889, 51.0111, 55.4944
55.9889, 58, 62, 47.4944
47.4944, 42.4944, 51.5056, 54.5056
55, 47, 29.9889, 44
44.4944, 41.5056, 40.4944, 37.0111
46, 41, 43, 53.4944
40.9889, 30.0111, 46.4944, 53.4944
36.5056, 41, 44, 41.9889
35, 29.5056, 34.4944, 29
45.9889, 32.5056, 31.5056, 32.5056
35, 39.4944, 46.4944, 33.5056
36.4944, 35, 45.5056, 41.9778
29, 38.5056, 29, 21.5056
8, 29.4944, 24.5056, 32
25.4944, 43.5056, 35, 26
29.0111, 40, 17, 17.4944
35.9889, 28.5056, 43, 39.4944
34.5056, 45, 29, 38.9889
23, 38, 27, 41.4944
36.4944, 26.4944, 40.4944, 27.5056
33, 25, 30, 30
41.4944, 31.5056, 26, 17
35, 25, 24.4944, 15.5056
27.0111, 33, 7.98889, 41.5056
27, 34.9889, 27.0111, 19
25, 20.4944, 37, 20.5056
39, 39, 25, 25
15, 27, 16, 18
17, 20, 24.4944, 32.5056
27.4944, 25.4944, 23.5056, 21.5056
15, 21, 26.4944, 28.5056
14.0111, 31, 45.4944, 22
19.4944, 25.5056, 41.9889, 24.0111
28.0222, 21.4944, 36, 29.5056
24, 22.5056, 35.4944, 39
27.5056, 26.0111, 26, 29.4944
20, 25.5056, 29.4944, 21.5056
15, 10, 18.4944, 32.5056
12, 15.4944, 33.5056, 27.4944
26.4944, 32, 17.5056, 14
20.4944, 27.5056, 25, 18.4944
15, 32.4944, 12.5056, 37
21, 29.4944, 16.5056, 35.9889
29.4944, 8, 22.5056, 33
16, 24.4944, 3, 26.5056
30, 24, 12, 21
29.5056, 26, 16, 30.4944
13.5056, 26.4944, 20, 33
16, 32.4944, 18.5056, 16
18, 26, 15.9889, 39.0111
27.9889, 34.0111, 16, 24.4944
17, 34.5056, 10.4944, 19.5056
29.4944, 24.0111, 24, 25.4944
15, 23, 31, 24.4944
32.5056, 31.5056, 17, 21
19.4944, 15.4944, 10.0111, 8.49445
28.5056
*END

*EOF

File: 22164_SL(CO)L_XRD_001.csv
#twotheta, yobs, ycal, bkg, diff
17.0,39.0,1.0,1.0,1.0
17.05,52.0,1.0,1.0,1.0
17.1,34.504,1.0,1.0,1.0
17.15,38.496,1.0,1.0,1.0
17.2,42.0,1.0,1.0,1.0
17.25,50.0,1.0,1.0,1.0
17.3,38.0,1.0,1.0,1.0
17.35,38.008,1.0,1.0,1.0
17.4,40.496,1.0,1.0,1.0
17.45,38.0,1.0,1.0,1.0
17.5,48.5119,1.0,1.0,1.0
17.55,35.496,1.0,1.0,1.0
17.6,34.504,1.0,1.0,1.0
17.65,44.496,1.0,1.0,1.0
17.7,60.0,1.0,1.0,1.0
17.75,40.504,1.0,1.0,1.0
17.8,43.992,1.0,1.0,1.0
17.85,25.504,1.0,1.0,1.0
17.9,58.992,1.0,1.0,1.0
17.95,38.0,1.0,1.0,1.0
18.0,43.008,1.0,1.0,1.0
18.05,49.496,1.0,1.0,1.0
18.1,40.0,1.0,1.0,1.0
18.15,54.496,1.0,1.0,1.0
18.2,41.496,1.0,1.0,1.0
18.25,38.0,1.0,1.0,1.0
18.3,47.496,1.0,1.0,1.0
18.35,32.496,1.0,1.0,1.0
18.4,42.504,1.0,1.0,1.0
18.45,39.496,1.0,1.0,1.0
18.5,37.0,1.0,1.0,1.0
18.55,34.0,1.0,1.0,1.0
18.6,36.008,1.0,1.0,1.0
18.65,48.0,1.0,1.0,1.0
18.7,34.504,1.0,1.0,1.0
18.75,33.008,1.0,1.0,1.0
18.8,47.504,1.0,1.0,1.0
18.85,33.504,1.0,1.0,1.0
18.9,36.0,1.0,1.0,1.0
18.95,52.0,1.0,1.0,1.0
19.0,36.0,1.0,1.0,1.0
19.05,38.992,1.0,1.0,1.0
19.1,35.496,1.0,1.0,1.0
19.15,37.008,1.0,1.0,1.0
19.2,51.496,1.0,1.0,1.0
19.25,44.504,1.0,1.0,1.0
19.3,45.0,1.0,1.0,1.0
19.35,38.0,1.0,1.0,1.0
19.4,25.992,1.0,1.0,1.0
19.45,26.504,1.0,1.0,1.0
19.5,40.0,1.0,1.0,1.0
19.55,55.008,1.0,1.0,1.0
19.6,35.992,1.0,1.0,1.0
19.65,44.0,1.0,1.0,1.0
19.7,49.0,1.0,1.0,1.0
19.75,42.0,1.0,1.0,1.0
19.8,54.008,1.0,1.0,1.0
19.85,46.496,1.0,1.0,1.0
19.9,35.008,1.0,1.0,1.0
19.95,49.0,1.0,1.0,1.0
20.0,52.504,1.0,1.0,1.0
20.05,36.496,1.0,1.0,1.0
20.1,48.0,1.0,1.0,1.0
20.15,36.496,1.0,1.0,1.0
20.2,33.504,1.0,1.0,1.0
20.25,64.504,1.0,1.0,1.0
20.3,42.0,1.0,1.0,1.0
20.35,41.0,1.0,1.0,1.0
20.4,41.496,1.0,1.0,1.0
20.45,35.0,1.0,1.0,1.0
20.5,32.496,1.0,1.0,1.0
20.55,27.4881,1.0,1.0,1.0
20.6,40.008,1.0,1.0,1.0
20.65,33.504,1.0,1.0,1.0
20.7,53.0,1.0,1.0,1.0
20.75,52.0,1.0,1.0,1.0
20.8,54.0,1.0,1.0,1.0
20.85,46.0,1.0,1.0,1.0
20.9,45.504,1.0,1.0,1.0
20.95,42.504,1.0,1.0,1.0
21.0,46.504,1.0,1.0,1.0
21.05,49.992,1.0,1.0,1.0
21.1,59.9841,1.0,1.0,1.0
21.15,37.496,1.0,1.0,1.0
21.2,56.992,1.0,1.0,1.0
21.25,60.496,1.0,1.0,1.0
21.3,61.992,1.0,1.0,1.0
21.35,70.504,1.0,1.0,1.0
21.4,66.992,1.0,1.0,1.0
21.45,93.008,1.0,1.0,1.0
21.5,134.496,1.0,1.0,1.0
21.55,136.008,1.0,1.0,1.0
21.6,147.008,1.0,1.0,1.0
21.65,137.4881,1.0,1.0,1.0
21.7,122.008,1.0,1.0,1.0
21.75,108.008,1.0,1.0,1.0
21.8,108.9841,1.0,1.0,1.0
21.85,116.008,1.0,1.0,1.0
21.9,94.992,1.0,1.0,1.0
21.95,154.0,1.0,1.0,1.0
22.0,182.0,1.0,1.0,1.0
22.05,205.0,1.0,1.0,1.0
22.1,252.0239,1.0,1.0,1.0
22.15,251.008,1.0,1.0,1.0
22.2,252.4881,1.0,1.0,1.0
22.25,429.992,1.0,1.0,1.0
22.3,427.9681,1.0,1.0,1.0
22.35,443.0319,1.0,1.0,1.0
22.4,365.4881,1.0,1.0,1.0
22.45,362.5199,1.0,1.0,1.0
22.5,291.5119,1.0,1.0,1.0
22.55,208.496,1.0,1.0,1.0
22.6,177.5119,1.0,1.0,1.0
22.65,227.0159,1.0,1.0,1.0
22.7,311.4801,1.0,1.0,1.0
22.75,416.504,1.0,1.0,1.0
22.8,547.504,1.0,1.0,1.0
22.85,731.9841,1.0,1.0,1.0
22.9,1055.504,1.0,1.0,1.0
22.95,1293.488,1.0,1.0,1.0
23.0,1653.98,1.0,1.0,1.0
23.05,2001.48,1.0,1.0,1.0
23.1,2083.9,1.0,1.0,1.0
23.15,1727.97,1.0,1.0,1.0
23.2,1180.98,1.0,1.0,1.0
23.25,1218.512,1.0,1.0,1.0
23.3,2093.02,1.0,1.0,1.0
23.35,3646.11,1.0,1.0,1.0
23.4,12008.7,1.0,1.0,1.0
23.45,59362,1.0,1.0,1.0
23.5,371857,1.0,1.0,1.0
23.55,399166,1.0,1.0,1.0
23.6,9897.71,1.0,1.0,1.0
23.65,2848.93,1.0,1.0,1.0
23.7,1168.496,1.0,1.0,1.0
23.75,660.4721,1.0,1.0,1.0
23.8,421.9841,1.0,1.0,1.0
23.85,285.9602,1.0,1.0,1.0
23.9,360.9841,1.0,1.0,1.0
23.95,439.504,1.0,1.0,1.0
24.0,276.496,1.0,1.0,1.0
24.05,191.496,1.0,1.0,1.0
24.1,116.496,1.0,1.0,1.0
24.15,125.0,1.0,1.0,1.0
24.2,94.0,1.0,1.0,1.0
24.25,73.992,1.0,1.0,1.0
24.3,60.4881,1.0,1.0,1.0
24.35,70.0,1.0,1.0,1.0
24.4,55.504,1.0,1.0,1.0
24.45,64.504,1.0,1.0,1.0
24.5,50.0,1.0,1.0,1.0
24.55,41.4881,1.0,1.0,1.0
24.6,55.496,1.0,1.0,1.0
24.65,50.0,1.0,1.0,1.0
24.7,80.5119,1.0,1.0,1.0
24.75,58.496,1.0,1.0,1.0
24.8,42.5119,1.0,1.0,1.0
24.85,30.008,1.0,1.0,1.0
24.9,35.0,1.0,1.0,1.0
24.95,37.504,1.0,1.0,1.0
25.0,23.0,1.0,1.0,1.0
25.05,27.0,1.0,1.0,1.0
25.1,28.0,1.0,1.0,1.0
25.15,30.0,1.0,1.0,1.0
25.2,22.496,1.0,1.0,1.0
25.25,33.0,1.0,1.0,1.0
25.3,33.504,1.0,1.0,1.0
25.35,37.496,1.0,1.0,1.0
25.4,32.0,1.0,1.0,1.0
25.45,45.992,1.0,1.0,1.0
25.5,21.0,1.0,1.0,1.0
25.55,21.992,1.0,1.0,1.0
25.6,14.008,1.0,1.0,1.0
25.65,18.0,1.0,1.0,1.0
25.7,21.496,1.0,1.0,1.0
25.75,10.0,1.0,1.0,1.0
25.8,16.0,1.0,1.0,1.0
25.85,21.496,1.0,1.0,1.0
25.9,22.0,1.0,1.0,1.0
25.95,21.504,1.0,1.0,1.0
26.0,9.496,1.0,1.0,1.0
26.05,22.504,1.0,1.0,1.0
26.1,13.0,1.0,1.0,1.0
26.15,15.0,1.0,1.0,1.0
26.2,13.496,1.0,1.0,1.0
26.25,23.0,1.0,1.0,1.0
26.3,19.0,1.0,1.0,1.0
26.35,13.0,1.0,1.0,1.0
26.4,20.0,1.0,1.0,1.0
26.45,28.504,1.0,1.0,1.0
26.5,27.0,1.0,1.0,1.0
26.55,24.496,1.0,1.0,1.0
26.6,21.0,1.0,1.0,1.0
26.65,14.008,1.0,1.0,1.0
26.7,21.496,1.0,1.0,1.0
26.75,16.0,1.0,1.0,1.0
26.8,23.992,1.0,1.0,1.0
26.85,22.496,1.0,1.0,1.0
26.9,21.0,1.0,1.0,1.0
26.95,11.0,1.0,1.0,1.0
27.0,30.504,1.0,1.0,1.0
27.05,15.0,1.0,1.0,1.0
27.1,38.504,1.0,1.0,1.0
27.15,21.0,1.0,1.0,1.0
27.2,24.0,1.0,1.0,1.0
27.25,13.496,1.0,1.0,1.0
27.3,10.008,1.0,1.0,1.0
27.35,5.992,1.0,1.0,1.0
27.4,15.0,1.0,1.0,1.0
27.45,16.0,1.0,1.0,1.0
27.5,12.0,1.0,1.0,1.0
27.55,25.496,1.0,1.0,1.0
27.6,21.0,1.0,1.0,1.0
27.65,9.0,1.0,1.0,1.0
27.7,11.0,1.0,1.0,1.0
27.75,6.504,1.0,1.0,1.0
27.8,18.0,1.0,1.0,1.0
27.85,18.0,1.0,1.0,1.0
27.9,6.0,1.0,1.0,1.0
27.95,12.0,1.0,1.0,1.0
28.0,15.504,1.0,1.0,1.0
28.05,9.504,1.0,1.0,1.0
28.1,9.008,1.0,1.0,1.0
28.15,14.0,1.0,1.0,1.0
28.2,16.0,1.0,1.0,1.0
28.25,18.0,1.0,1.0,1.0
28.3,11.0,1.0,1.0,1.0
28.35,22.0,1.0,1.0,1.0
28.4,4.0,1.0,1.0,1.0
28.45,13.504,1.0,1.0,1.0
28.5,5.0,1.0,1.0,1.0
28.55,10.0,1.0,1.0,1.0
28.6,25.0,1.0,1.0,1.0
28.65,15.504,1.0,1.0,1.0
28.7,11.0,1.0,1.0,1.0
28.75,19.496,1.0,1.0,1.0
28.8,7.0,1.0,1.0,1.0
28.85,11.0,1.0,1.0,1.0
28.9,17.496,1.0,1.0,1.0
28.95,17.0,1.0,1.0,1.0
29.0,12.504,1.0,1.0,1.0

File: 22164_SL(CO)L_XRD_001_2-Theta_Omega.asc
*TYPE		=  Raw
*CLASS		=  ASCII CLASS
*SAMPLE		=
*COMMENT	=
*FNAME		=  22164_SL(CO)L_XRD_001_2-Theta_Omega.asc
*DATE		=  09-Dec-22 01:38

*GROUP_COUNT	=  1
*GONIO		=  SmartLab(In-plane), 0.000000
*ATTACHMENT	=  Z-Phi Stage
*ASC		=  0, 0, 0.000000, 0.000000
*I_MONOCHRO	=  Ge(220)x2, 0.000000
*FILTER		=  None
*C_MONOCHRO	=  None, 0.000000
*SLIT_NAME	=  0, Incident slit
*SLIT_NAME	=  1, Receiving slit # 1
*SLIT_NAME	=  2, Receiving slit # 2
*COUNTER	=  D/teX Ultra 250, 0
*POS_FORMAT	=  0
*SCAN_AXIS	=  2Theta/Omega
*MEAS_MODE	=  Continuous Scanning
*TARGET		=  29
*XRAY_CHAR	=  K-ALPHA1
*WAVE_LENGTH1	=  1.54059
*WAVE_LENGTH2	=  1.54441
*THICKNESS	=  0, 0.000000
*MU		=  0, 0.000000
*SCAN_MODE	=  2Theta/Omega
*SPEED_DIM	=  sec./step
*XUNIT		=  deg.
*YUNIT		=  counts
*SCALE_MODE	=  1
*REP_COUNT	=  0
*SE_COUNT	=  0
*STD_MATERIAL	=  Unknown, Unknown, 0.000000, 0.000000, 0.000000, 0.000000, 0.000000, 0.000000
*LATT_CONS	=  0, Unknown, Unknown, 0.000000, 0.000000, 0.000000, 0.000000, 0.000000, 0.000000
*SEC_COUNT	=  1
*TSPEC_SIZE	=  0
*EXTRA_SIZE	=  0
*MEMO		=

*BEGIN
*GROUP		=  0
*START		=  17
*STOP		=  29
*STEP		=  0.01
*OFFSET		=  0.1607
*SPEED		=  23.9588
*SLIT_SPEC	=  0, 0.400mm, 0.4, 0.000000
*SLIT_SPEC	=  1, 0.400mm, 0.4, 0.000000
*SLIT_SPEC	=  2, 0.400mm, 0.4, 0.000000
*KV		=  40
*MA		=  30
*LOW		=  0.000000
*HIGH		=  0.000000
*CTEMPER	=  0, 0.000000
*CTEMPER	=  1, 0.000000
*CTEMPER	=  2, 0.000000
*PAREX		=  0, 0.000000
*PAREX		=  1, 0.000000
*PAREX		=  2, 0.000000
*PAREX		=  3, 0.000000
*PAREX		=  4, 0.000000
*PAREX		=  5, 0.000000
*PAREX		=  6, 0.000000
*PAREX		=  7, 0.000000
*PAREX		=  8, 0.000000
*PAREX		=  9, 0.000000
*PAREX		=  10, 0.000000
*PAREX		=  11, 0.000000
*PAREX		=  12, 0.000000
*PAREX		=  13, 0.000000
*PAREX		=  14, 0.000000
*PAREX		=  15, 0.000000
*FULL_SCALE	=  249160
*INDEX		=  0, 0, 0
*COUNT		=  1201
39, 33.5199, 54.9841, 42
50, 35, 34.504, 35.496
53.504, 17.496, 31.504, 26.496
33.992, 50, 33, 37.504
30.992, 36, 29, 38.008
40.496, 59.008, 31.992, 46
39.008, 48.992, 48.5119, 26.4881
32.504, 35.496, 37.504, 44.496
46.008, 44.496, 33.496, 54.008
47, 43.008, 41.992, 40.504
43.992, 32, 41, 54.504
24, 37.5119, 58.992, 43.496
48.008, 30.992, 41.504, 38.496
47.504, 49.496, 36.496, 47
40.008, 34.496, 18, 54.496
41.496, 26.496, 31, 27.504
36.008, 41.496, 47.496, 51.008
40.496, 43, 48.504, 38
54, 39.496, 27.504, 39.496
40.496, 16, 25, 34
36.008, 36, 51.504, 28.4881
35.496, 30, 34.504, 25.496
38, 39.504, 42.992, 30.496
29, 33.504, 44.496, 32
37.496, 46, 36.504, 52
36, 30, 30.008, 37.992
34, 19.504, 35.496, 41.008
38.496, 45, 38.496, 31.008
43.992, 44.504, 38.992, 43.008
38.504, 52.496, 24, 38
25.992, 39, 31.504, 41.496
54, 52.496, 40, 34.008
33, 42.992, 39, 48.008
30, 44, 39, 42
43, 18, 35, 42
54.008, 30, 43.992, 30.504
45, 30.504, 35.008, 42.496
51, 47.008, 56.5119, 48.4801
54.496, 36.496, 63, 44
40, 44.008, 38.496, 36.496
33.504, 36.008, 49.992, 42.504
38.4881, 32.504, 42, 55.496
35, 31.496, 34.504, 33
37, 35, 34, 24.504
29, 31.504, 34.008, 27.4881
40.008, 31.992, 32, 27
29.504, 47.496, 53, 46.504
50, 29.496, 41, 39
37, 46, 57.504, 46.504
42.496, 34, 38.496, 42.504
46.504, 40.504, 63.992, 45
54.008, 43.008, 59.9841, 56
56.504, 51.992, 43.504, 60
42.008, 60.496, 53.504, 59.992
75.008, 65, 75.992, 70.504
66.992, 59, 87.008, 72.496
87, 94.496, 134.496, 112
135.992, 155, 145.504, 129.992
124.024, 137.488, 139, 133.008
120.504, 97.4881, 107.504, 108.008
108.984, 104.008, 141.504, 106.496
120, 89.0159, 94.992, 147.008
136, 161, 181.496, 159.512
236.496, 205, 225.504, 244
250.016, 251.488, 277.496, 251.008
252.488, 314, 354.52, 336.008
390.016, 393.512, 427.968, 395.024
398.464, 406.016, 366.496, 353.488
399.488, 362.52, 357.472, 340.512
223.48, 266.008, 214.504, 208.496
177.512, 211.496, 194.992, 208
280, 264, 311.48, 296.008
418.992, 440.496, 492.008, 509.984
718.488, 731.984, 879.008, 821.536
1062.53, 1187.49, 1299.01, 1293.49
1653.98, 1705.52, 1933, 1905.5
2090.48, 2055.08, 2083.9, 1962.54
1632.98, 1446.5, 1279, 1175.49
1074.02, 1218.51, 1292.47, 1519.04
2609.51, 2906.54, 3328.92, 3646.11
12008.7, 17380.4, 23892.7, 32907.8
137658, 205948, 371857, 915194
84117.6, 38107.7, 21819.6, 14232.9
3507.94, 2848.93, 2296.51, 1877.99
880.448, 806.528, 751.008, 660.472
421.984, 322, 336.504, 322.504
374, 321, 360.984, 406.008
386.496, 384.52, 364.984, 338.008
224.496, 191.496, 176.504, 144.488
123.504, 103.496, 112, 125
94, 100.504, 82.496, 104.008
93.496, 65, 60.4881, 58
63.008, 75, 53.496, 68.496
72.504, 64.504, 51, 51
53.504, 37.992, 65.5119, 41.4881
55.496, 42.496, 78.5119, 60.9841
67.5119, 62.9841, 80.5119, 49.4881
67.008, 43.496, 53, 55.496
45.496, 30.008, 44.992, 43.504
32.9841, 37.504, 48.496, 37.504
23, 36.496, 41, 44.504
39.504, 40.496, 28, 41.008
30.5119, 45.992, 44.504, 53.496
39, 33, 42.504, 29.496
36, 40.504, 29, 37.496
32, 34.008, 31.992, 25.5119
17.504, 33.496, 21, 27.504
22, 17, 22.008, 34.992
22, 18, 20, 17.504
27.992, 25.008, 18.992, 10
16, 9, 18, 28
23, 34, 22, 12
32.496, 23, 17.008, 26.496
15.496, 22.504, 23, 22.496
22, 17.496, 38, 15
13.496, 14.504, 13.496, 11
26, 22, 19, 23
27, 20, 20.504, 21.496
16, 28.504, 16.496, 18.504
14, 11.008, 27.496, 24.496
21, 12, 9, 23
13, 14.496, 21.496, 23.504
18, 35, 15, 14.008
17.008, 22.496, 20.496, 16
16.496, 33.008, 20.992, 11
30.504, 42.992, 13, 23.504
29.496, 13, 38.504, 38.496
25, 20, 19, 10
22.504, 13.496, 16, 12.504
20.496, 19, 12.008, 5.99203
15, 16, 31, 19.504
13, 17, 12, 21
12, 12, 20, 16
11.496, 9, 18.504, 20.496
10.008, 17.992, 17, 6.50398
18, 8, 24, 12
13.504, 17.496, 6, 15.008
16, 13, 11, 16
12, 9.50398, 19.496, 13
15.496, 16.008, 12.992, 14
16, 18, 23, 17
12.504, 24.496, 11, 19
15, 18, 9.00797, 13.992
2, 13.504, 9.49602, 17
18, 11, 19, 10
25, 20, 12, 11.504
17, 16, 11, 17
13.504, 27.496, 12, 16
22, 11, 12.504, 22.496
6, 10, 13, 17
12.504
*END

*EOF