Folder: Analysis/XRD:XRR/SCO/22164_SL(CO)L (part 2)

File: 22164_SL(CO)L_XRR_2-Theta_Omega.asc
*TYPE		=  Raw
*CLASS		=  ASCII CLASS
*SAMPLE		=
*COMMENT	=
*FNAME		=  22164_SL(CO)L_XRR_2-Theta_Omega.asc
*DATE		=  24-Nov-22 21:28

*GROUP_COUNT	=  1
*GONIO		=  SmartLab(In-plane), 0.000000
*ATTACHMENT	=  Z-Phi Stage
*ASC		=  0, 0, 0.000000, 0.000000
*I_MONOCHRO	=  Ge(220)x2, 0.000000
*FILTER		=  None
*C_MONOCHRO	=  None, 0.000000
*SLIT_NAME	=  0, Incident slit
*SLIT_NAME	=  1, Receiving slit # 1
*SLIT_NAME	=  2, Receiving slit # 2
*COUNTER	=  D/teX Ultra 250, 0
*POS_FORMAT	=  0
*SCAN_AXIS	=  2Theta/Omega
*MEAS_MODE	=  Continuous Scanning
*TARGET		=  29
*XRAY_CHAR	=  K-ALPHA1
*WAVE_LENGTH1	=  1.54059
*WAVE_LENGTH2	=  1.54441
*THICKNESS	=  0, 0.000000
*MU		=  0, 0.000000
*SCAN_MODE	=  2Theta/Omega
*SPEED_DIM	=  sec./step
*XUNIT		=  deg.
*YUNIT		=  counts
*SCALE_MODE	=  1
*REP_COUNT	=  0
*SE_COUNT	=  0
*STD_MATERIAL	=  Unknown, Unknown, 0.000000, 0.000000, 0.000000, 0.000000, 0.000000, 0.000000
*LATT_CONS	=  0, Unknown, Unknown, 0.000000, 0.000000, 0.000000, 0.000000, 0.000000, 0.000000
*SEC_COUNT	=  1
*TSPEC_SIZE	=  0
*EXTRA_SIZE	=  0
*MEMO		=

*BEGIN
*GROUP		=  0
*START		=  0.4
*STOP		=  4.5
*STEP		=  0.01
*OFFSET		=  -0.050400
*SPEED		=  23.9588
*SLIT_SPEC	=  0, 1.000mm, 1, 0.000000
*SLIT_SPEC	=  1, 1.000mm, 1, 0.000000
*SLIT_SPEC	=  2, 1.000mm, 1, 0.000000
*KV		=  40
*MA		=  30
*LOW		=  0.000000
*HIGH		=  0.000000
*CTEMPER	=  0, 0.000000
*CTEMPER	=  1, 0.000000
*CTEMPER	=  2, 0.000000
*PAREX		=  0, 0.000000
*PAREX		=  1, 0.000000
*PAREX		=  2, 0.000000
*PAREX		=  3, 0.000000
*PAREX		=  4, 0.000000
*PAREX		=  5, 0.000000
*PAREX		=  6, 0.000000
*PAREX		=  7, 0.000000
*PAREX		=  8, 0.000000
*PAREX		=  9, 0.000000
*PAREX		=  10, 0.000000
*PAREX		=  11, 0.000000
*PAREX		=  12, 0.000000
*PAREX		=  13, 0.000000
*PAREX		=  14, 0.000000
*PAREX		=  15, 0.000000
*FULL_SCALE	=  179533
*INDEX		=  0, 0, 0
*COUNT		=  411
2690022, 2748088, 2813091, 2877305.5
2936219, 2996328.5, 3058354.5, 3115107.5
3168116, 3226467.5, 3278464, 3322307
3374045.5, 3419859, 3454907, 3488036
3515560, 3532352, 3548289, 3548595.5
3540328.5, 3515838, 3484921, 3435048
3371894, 3283332, 3179239.8, 3048589.8
2894120.3, 2709969.3, 2502681.3, 2279167.3
2042831.8, 1810632.3, 1591456.3, 1389518.3
1211967.1, 1061086.1, 935718, 830061
744473, 672497, 604622, 545972
495821, 452823, 416615, 386486
362166, 336858, 312449, 288582
264454, 241369, 219903, 203499
190887, 181475, 172629, 163710
154980, 143790, 132363, 121660
113568, 108851, 109671, 116328
128133, 142970, 158820, 172556
183985, 189073, 188868, 180918
168186, 151307, 132990, 114080
96893, 82791, 73194, 66469
63902, 64369, 66352.5, 68761.5
69691.5, 70797, 69344.5, 66440.5
62252, 57561.5, 52895, 48697
45172.5, 42867.5, 41083.5, 40674.5
40560, 40733.5, 41315, 41254.5
40586.5, 39762, 38488.5, 36824.5
34721.5, 33453, 31872.5, 31229
30662.5, 30175, 30214, 30497.5
30502.5, 30453, 30346.5, 29875.5
29362, 28364.5, 27212, 26338.5
25006.5, 23591, 22497.5, 21267
19636, 18112, 16592, 15168.5
13544, 11601.5, 10099, 8681.5
7712, 6931.5, 6665.5, 7000
7428.5, 8361, 9045, 10111
11053.5, 11535, 11743.5, 11625
11338.5, 10712, 9820, 8695
7309, 6467.5, 5446, 4878
4427.5, 4481, 4574, 4828.5
5165.5, 5532, 5719, 5935
5871, 5696, 5440.5, 5004.5
4500, 3972, 3574.5, 3258
2903, 2835, 2807.5, 2832.5
3054, 3004, 3043.5, 3218.5
3027, 2960.5, 2804, 2739.5
2416.5, 2155, 1941.5, 1799
1641.5, 1655, 1720, 1717.5
1776.5, 1845.5, 1883, 1904
2037, 2117.5, 2217.5, 2365
2423, 2588, 2852, 3009.5
3283, 3597.5, 3912, 4249.5
4658, 4933.5, 5038, 5115.5
5061.5, 5010.5, 4771.5, 4353.5
4133, 3608, 3246, 2768.5
2471, 2150.5, 1915, 1629
1528, 1462, 1531, 1478
1528.5, 1638, 1632, 1727.5
1692.5, 1766, 1748.5, 1679
1587.5, 1448.5, 1275.5, 1203.5
1071.5, 1091, 1001.5, 1041
950.501, 919.999, 936.5, 1121.5
1018, 1040.5, 1030, 1072
1050, 1011, 978.5, 969.5
899, 924.5, 866.001, 834.5
826.5, 828.5, 930.5, 870
914, 882.5, 985, 963.5
1054, 1058, 1041.5, 1109.5
1088, 1111.5, 1121, 1093.5
1145, 1215.5, 1173, 1253
1265, 1242, 1406, 1286
1363, 1391.5, 1489, 1462
1513.5, 1545, 1382.5, 1471.5
1485, 1350.5, 1312.5, 1257
1113.5, 1123.5, 984.5, 883.5
853, 785, 781.001, 756.5
655.5, 733.5, 665.5, 700
681.5, 735.5, 718.5, 808.5
736.001, 747, 757.5, 734.001
686, 665.001, 582, 597.5
565.5, 526.5, 507.5, 528
497, 518.5, 529.5, 433.5
541, 474.5, 472, 512
541, 493.5, 517.5, 459
465.5, 442, 463.5, 427.5
429, 416.5, 467, 443
467, 479.5, 479, 478
434.5, 480.5, 491.5, 490
477.5, 401.5, 394.5, 377.5
449, 410.5, 378, 405.5
443.5, 438.5, 427.5, 404
423.5, 441, 452, 425.5
409.5, 399.5, 410.5, 402.5
394.5, 390, 397, 370.5
418, 348, 405.5, 351.5
376.5, 429.5, 419, 373.5
443.5, 398, 437.5, 395.5
440, 405.5, 420.5, 378.5
382.5, 430, 362.5, 402.5
376, 369.5, 379, 405
383.5, 385.5, 359.5, 391.5
359, 386.5, 417.5, 387.5
420.5, 451.5, 403.5
*END

*EOF