Folder: Analysis/XRD:XRR/SCO/22170_SL(CO)L (part 2)

File: 22170_SL(CO)L_002_XRD_2-Theta_Omega.asc
*TYPE		=  Raw
*CLASS		=  ASCII CLASS
*SAMPLE		=
*COMMENT	=
*FNAME		=  22170_SL(CO)L_002_XRD_2-Theta_Omega.asc
*DATE		=  20-Dec-22 16:24

*GROUP_COUNT	=  1
*GONIO		=  SmartLab(In-plane), 0.000000
*ATTACHMENT	=  Z-Phi Stage
*ASC		=  0, 0, 0.000000, 0.000000
*I_MONOCHRO	=  Ge(220)x2, 0.000000
*FILTER		=  None
*C_MONOCHRO	=  None, 0.000000
*SLIT_NAME	=  0, Incident slit
*SLIT_NAME	=  1, Receiving slit # 1
*SLIT_NAME	=  2, Receiving slit # 2
*COUNTER	=  D/teX Ultra 250, 0
*POS_FORMAT	=  0
*SCAN_AXIS	=  2Theta/Omega
*MEAS_MODE	=  Continuous Scanning
*TARGET		=  29
*XRAY_CHAR	=  K-ALPHA1
*WAVE_LENGTH1	=  1.54059
*WAVE_LENGTH2	=  1.54441
*THICKNESS	=  0, 0.000000
*MU		=  0, 0.000000
*SCAN_MODE	=  2Theta/Omega
*SPEED_DIM	=  sec./step
*XUNIT		=  deg.
*YUNIT		=  counts
*SCALE_MODE	=  1
*REP_COUNT	=  0
*SE_COUNT	=  0
*STD_MATERIAL	=  Unknown, Unknown, 0.000000, 0.000000, 0.000000, 0.000000, 0.000000, 0.000000
*LATT_CONS	=  0, Unknown, Unknown, 0.000000, 0.000000, 0.000000, 0.000000, 0.000000, 0.000000
*SEC_COUNT	=  1
*TSPEC_SIZE	=  0
*EXTRA_SIZE	=  0
*MEMO		=

*BEGIN
*GROUP		=  0
*START		=  42
*STOP		=  52
*STEP		=  0.01
*OFFSET		=  0.0691
*SPEED		=  23.9588
*SLIT_SPEC	=  0, 0.600mm, 0.6, 0.000000
*SLIT_SPEC	=  1, 0.600mm, 0.6, 0.000000
*SLIT_SPEC	=  2, 0.600mm, 0.6, 0.000000
*KV		=  40
*MA		=  30
*LOW		=  0.000000
*HIGH		=  0.000000
*CTEMPER	=  0, 0.000000
*CTEMPER	=  1, 0.000000
*CTEMPER	=  2, 0.000000
*PAREX		=  0, 0.000000
*PAREX		=  1, 0.000000
*PAREX		=  2, 0.000000
*PAREX		=  3, 0.000000
*PAREX		=  4, 0.000000
*PAREX		=  5, 0.000000
*PAREX		=  6, 0.000000
*PAREX		=  7, 0.000000
*PAREX		=  8, 0.000000
*PAREX		=  9, 0.000000
*PAREX		=  10, 0.000000
*PAREX		=  11, 0.000000
*PAREX		=  12, 0.000000
*PAREX		=  13, 0.000000
*PAREX		=  14, 0.000000
*PAREX		=  15, 0.000000
*FULL_SCALE	=  926165
*INDEX		=  0, 0, 0
*COUNT		=  1001
60, 67.0111, 68.4944, 74
65.4833, 61.0222, 73, 58.9889
77, 41.0111, 68, 61
55, 64.4944, 50, 66
39.5056, 68, 64.9889, 62.0111
74, 79.4944, 64.4944, 71.5056
50, 63.5056, 51.9778, 52.0222
55.9889, 72.5056, 58, 42.4944
73.4833, 68.5278, 59.4944, 67
78.5056, 64, 66.4944, 60
57.5056, 49.4944, 63.5056, 77
68.9778, 62.5167, 79.4944, 55.0111
74, 71.4944, 61.5056, 62
76.4944, 80.9889, 60.0111, 63
57, 61.9889, 91.5167, 54.4944
63.5056, 78.4944, 76, 55.4944
76.5056, 68, 78.5056, 70.9889
61.5056, 75, 65, 68.4833
74, 91.0111, 70.5056, 69
86.9889, 64.5056, 82.4944, 52.0111
70.5056, 65.9889, 75.5056, 60
78, 67.9889, 84.0111, 73.5056
62.4944, 67.4833, 101.517, 69.4944
70.0111, 78.9889, 80.5056, 82.4944
70.0111, 86.9889, 78.0111, 71
52.4944, 68.4944, 91, 75.5056
62.4833, 93.5167, 81.5056, 73.4944
73, 75, 77.9778, 62.0111
98, 68.5167, 61.4833, 70.5167
78, 78.4944, 80, 76.4833
73.5056, 74.4944, 67.5056, 42.5167
72, 69.9889, 87.5056, 71.4944
82.0111, 80.4833, 54.5167, 73.9889
75.0111, 85.4833, 86.5056, 64.4944
80.4944, 78.0111, 71.0111, 77
61.4944, 70, 68.5056, 66.9889
74.5056, 93.5056, 75, 65
74.9889, 64.5056, 68.5056, 77.9889
83, 83, 105, 88.4833
94.5278, 92, 80.9889, 80.5056
84, 73, 86.5056, 72.4944
72.4944, 59.4944, 87, 77.5056
102.506, 107.472, 67.5167, 76.0111
92.5056, 86, 101.978, 104.022
102.989, 97.4944, 83, 105
98.5167, 106.472, 125, 93.5167
95.0111, 114.989, 100.483, 121.022
84, 104.483, 121.517, 78
109.989, 94, 86.0111, 108
107.494, 86.9889, 86.0111, 121.506
127, 87.5056, 109, 86
93, 94, 128.978, 102.517
117.483, 100.011, 119.506, 99
99.9889, 128.506, 112.011, 152.978
108.011, 100.483, 138.011, 147.494
130.517, 126.494, 130.978, 142.011
136.011, 130.506, 128.494, 146.494
148, 150.494, 138.989, 157.022
129.494, 150.011, 207.989, 131.494
121.517, 136.978, 137.517, 144.494
140.494, 143, 153.517, 115.494
127.989, 128.506, 141.989, 138
135.517, 138.494, 117.506, 143.989
142.494, 95.5278, 134.494, 120.978
137.517, 111.011, 96, 116.483
129.011, 163.494, 90, 132.506
142.989, 139.506, 132.494, 139.011
161.483, 134, 175.494, 148.022
130.967, 154.022, 170.011, 186.461
179.011, 177, 209.011, 157.011
212.989, 191, 237.483, 184.528
239.989, 224.494, 216.483, 278.506
252.528, 244.989, 257.494, 254.011
229.011, 269.978, 295.494, 284.494
285.033, 374.45, 321.033, 321.506
383.472, 411.967, 401.55, 438.506
471.956, 459.494, 538.011, 546.506
545.483, 545.022, 584.494, 656.472
648.483, 791.033, 820.45, 869.989
906, 929.517, 951.528, 987.978
978, 1146.96, 1177.04, 1153.55
1298.38, 1311.01, 1427.03, 1289.97
1462.48, 1466.03, 1452.96, 1516.04
1474.47, 1558.97, 1600, 1612.03
1575.98, 1711.04, 1618.99, 1689.47
1694.49, 1655, 1649.96, 1776.01
1832.51, 1883.94, 2042.57, 1924.52
2025.96, 2084.48, 2086, 2256.53
2382.47, 2426.91, 2547.52, 2843.1
2980.41, 3159.45, 3241.16, 3474.28
3843, 3973.44, 4227.54, 4478.36
4868.02, 5258.97, 5726.45, 6043.47
6302.51, 6827.41, 7206.9, 7695.9
8208.03, 8749.02, 9215.34, 9876.81
10471.7, 11009.4, 11354.9, 11945.4
12762.8, 13159.7, 13796.4, 13815.9
14493.2, 14978, 15522.1, 15683
16029.5, 16410.4, 16571.2, 16790.2
17157.1, 16907.9, 17598, 17454.7
17737.5, 17455.4, 17636.2, 17945.8
17815.1, 17759.9, 17772.4, 17986.1
17718.6, 17928.6, 17939.3, 17959.2
17338.3, 17770.1, 17521.2, 17360.6
17001.6, 16786.6, 16693.1, 16033.8
16060.3, 15487, 15047.5, 14489.1
14061.9, 13635.7, 13058.5, 12832.1
12135.5, 11408.8, 11033.9, 10463.3
9583.1, 9513.97, 9104.93, 8725.65
8128.99, 7899.57, 7573.67, 7167.44
7091.47, 6788.08, 6800.49, 6517.45
6620.65, 6519.43, 6496.01, 6694.92
6729.94, 6900.12, 6936.89, 7192.43
7330.1, 7543.32, 7784.06, 7872.08
8200.94, 8376.39, 8568.56, 8599.91
8594.02, 8832.46, 8838.09, 8761.91
8691.17, 8740.49, 8583.92, 8522.51
8164.59, 8138.48, 7960.03, 7816.99
7555.97, 7514.55, 7117.94, 6915.54
6615.08, 6330.64, 6344.33, 6027.67
5913.97, 5603.1, 5461.93, 5387.98
5053.11, 4817.56, 4603.51, 4431.48
4173.48, 3962.98, 3891.13, 3717.49
3488.57, 3268.35, 3220.62, 2900.01
2863.53, 2714.45, 2632.09, 2643.07
2388.45, 2362.93, 2305.99, 2244.06
2093.54, 2138.48, 2087.98, 1932.58
1942.94, 1852.51, 1809.03, 1874.51
1694, 1701.45, 1707.57, 1617.49
1609.04, 1548, 1423.48, 1434.53
1447.01, 1418.98, 1328.02, 1460.93
1459.99, 1391.03, 1438.52, 1452.98
1523.03, 1485.44, 1651.44, 1680.09
1796.94, 1830.48, 2019.02, 2034.49
2080.48, 2262.96, 2334.99, 2426.51
2556.52, 2570.42, 2631.52, 2747.56
2809.45, 2802.47, 2833.51, 2913.98
2900.11, 2922.44, 2938.94, 2976.02
2928, 2878.98, 2985.58, 2978.49
3036.94, 3037.51, 3072.99, 3024.56
3235.41, 3325.01, 3165.06, 3322.49
3210, 3323.46, 3411.01, 3455.96
3566.51, 3565.54, 3638.51, 3668.42
3908.97, 4064.03, 4317.94, 4387.92
4796.49, 5026.49, 5321.35, 5930.93
6605.96, 7277.82, 8415.59, 9646.84
11051.8, 13020.3, 15447.8, 18966.5
23152.3, 28709.4, 36122.3, 46352.9
60260.4, 79632.3, 121391, 207100
305640, 461324, 647807, 823478
1099223.6, 1586534.4, 2561911.3, 5896777
11748200, 17444562, 10600177, 4075256.3
2527615.5, 1928857, 1730353.8, 1554232.4
1337746.1, 922183, 497313, 189882
79379.4, 45362.6, 30202.9, 21766.3
16526.4, 12760.3, 10446.6, 8545.34
7383.65, 6348.89, 5492.59, 4715.68
4361.47, 3916.09, 3441.98, 3252.61
2960.99, 2644.53, 2405.02, 2256.53
2029.54, 1959.53, 1736.02, 1601.49
1533.96, 1419.58, 1317.01, 1227.99
1169.98, 1046.52, 1011.52, 942.022
934.483, 912, 876.011, 873.528
729.989, 781.517, 697.978, 651.517
644.506, 623.461, 619.517, 565.506
547.506, 538.011, 493.506, 453
441.472, 470.044, 408.989, 438.967
401.528, 426.022, 334.989, 374.011
321.967, 333.539, 299.967, 341.011
346.011, 332.483, 291.506, 352.011
349.967, 325.022, 351.517, 289.978
318, 327.494, 322.011, 348.506
283.989, 291.011, 287.506, 303.506
279.506, 300.472, 276.517, 297
269.989, 283.472, 269.033, 240.022
271.978, 268.022, 230.494, 230.494
224, 195.011, 242, 219.461
198.033, 216.483, 211.011, 228
202.494, 151.517, 186.989, 149.011
177.494, 135.989, 180.517, 154.506
153, 158.011, 166.483, 133.494
139.494, 146, 168.022, 135
135.494, 145.472, 148.022, 155.506
113.506, 126.989, 125.506, 123.011
139.472, 142.022, 98, 145.506
127.978, 124.011, 132.494, 121
119.494, 116.011, 113, 103
98.9889, 99.0111, 107.989, 125.506
96, 103.517, 118.483, 96.9889
126.011, 101.011, 115, 103.494
87.4944, 89.0111, 82.4944, 101
87.4833, 96.0222, 85.4944, 95.5056
93.4944, 99.5056, 92.5056, 103.989
91.4833, 104.528, 81, 68.9889
101.494, 79.0111, 64.5056, 79.4944
84.5056, 80.4944, 73.4833, 89.0222
89.4944, 75.4944, 90.5056, 85.4944
69.4944, 79.0111, 79, 62.4944
91.5056, 80.4944, 75.0111, 82.9889
74.9889, 68.0222, 69.4944, 68.5056
75.9889, 69, 66.5056, 72.4944
86.0111, 63.9889, 65.5056, 38
64.4944, 64.0111, 55.4944, 52.4944
91.0111, 62, 49.9889, 51
65.5056, 63.4944, 69.0111, 65.9889
58.0111, 63.9889, 61.0111, 78
39, 64, 61.4944, 58.4944
60.5056, 54.4833, 68.5167, 77
84.4944, 55.5056, 64.5056, 82.4944
45.5056, 44.9889, 54.5056, 62.5056
59, 67.9778, 49.5167, 66
56.9889, 67.5167, 53, 63.4833
55.5167, 58, 42, 58.4833
62.5167, 50.9889, 78.5056, 56.5056
52.4944, 77.9889, 50.4944, 59.5167
68.9889, 66.5167, 61, 59
67, 57, 45.9889, 67
58.0111, 54.9889, 69.5056, 69.4944
69.0111, 69, 78.4944, 79
45.5056, 67.4944, 47.5056, 34.4944
65.5056, 58.9778, 64.5167, 54.9889
69.0111, 77, 57.4944, 55.0111
55, 53.9889, 53, 57
53, 60.0111, 68, 59.9889
73.9889, 61.5167, 43, 70
47.5056, 51.4833, 48.5056, 51
54.0111, 53.4944, 65.4833, 69.0222
56, 54.4833, 44.0111, 62.4944
61.0111, 51.9889, 78.0111, 48.4833
24.5167, 81.4944, 36.5056, 37
39.4944, 39.4944, 55, 61.0111
41, 50.4944, 55.5056, 45.4833
40.0111, 55.5056, 34.4944, 47.5056
48.4944, 60, 37.9889, 64.0111
44, 48.5056, 43.4944, 45.5056
48.4944, 38.4833, 64.5056, 32.5056
46, 38.5056, 54, 65
44, 56, 62.5056, 48.9889
49.0111, 45, 52, 41
53.4944, 34.5056, 56, 50.9889
33.5056, 65.5056, 55.4944, 64.4944
53.0111, 70.4833, 38.5167, 38.9778
80.0111, 56.0111, 39, 28.9889
56.0111, 53.4944, 49, 47.4944
58.0111, 46.4944, 39.5056, 63
46, 40.9889, 46.5056, 28.5056
60, 45.4944, 54.4944, 52.0111
64, 38.4944, 53, 54.4944
42, 45, 49.0111, 47.9889
63.0111, 50.4944, 58.5056, 54
50.4944, 48.5056, 55.4944, 51.4944
56.4944
*END

*EOF