Folder: Analysis/XRD:XRR/SCO/22170_SL(CO)L

File: 22170_SL(CO)L_001_XRD_2.csv
#twotheta, yobs, ycal, bkg, diff
17.0,28.008,1.0,1.0,1.0
17.06,51.0,1.0,1.0,1.0
17.12,48.504,1.0,1.0,1.0
17.18,44.008,1.0,1.0,1.0
17.24,42.504,1.0,1.0,1.0
17.3,31.504,1.0,1.0,1.0
17.36,33.496,1.0,1.0,1.0
17.42,52.504,1.0,1.0,1.0
17.48,39.504,1.0,1.0,1.0
17.54,35.008,1.0,1.0,1.0
17.6,38.008,1.0,1.0,1.0
17.66,44.496,1.0,1.0,1.0
17.72,53.504,1.0,1.0,1.0
17.78,38.504,1.0,1.0,1.0
17.84,47.496,1.0,1.0,1.0
17.9,45.008,1.0,1.0,1.0
17.96,49.0,1.0,1.0,1.0
18.02,46.4881,1.0,1.0,1.0
18.08,56.496,1.0,1.0,1.0
18.14,46.504,1.0,1.0,1.0
18.2,57.504,1.0,1.0,1.0
18.26,61.0,1.0,1.0,1.0
18.32,50.0,1.0,1.0,1.0
18.38,55.504,1.0,1.0,1.0
18.44,55.504,1.0,1.0,1.0
18.5,46.008,1.0,1.0,1.0
18.56,42.504,1.0,1.0,1.0
18.62,34.0,1.0,1.0,1.0
18.68,27.504,1.0,1.0,1.0
18.74,43.496,1.0,1.0,1.0
18.8,54.504,1.0,1.0,1.0
18.86,43.4881,1.0,1.0,1.0
18.92,55.0,1.0,1.0,1.0
18.98,70.992,1.0,1.0,1.0
19.04,54.0,1.0,1.0,1.0
19.1,59.008,1.0,1.0,1.0
19.16,63.008,1.0,1.0,1.0
19.22,65.992,1.0,1.0,1.0
19.28,56.4881,1.0,1.0,1.0
19.34,65.496,1.0,1.0,1.0
19.4,53.496,1.0,1.0,1.0
19.46,45.496,1.0,1.0,1.0
19.52,53.992,1.0,1.0,1.0
19.58,35.496,1.0,1.0,1.0
19.64,70.5119,1.0,1.0,1.0
19.7,56.008,1.0,1.0,1.0
19.76,59.008,1.0,1.0,1.0
19.82,43.0,1.0,1.0,1.0
19.88,62.0,1.0,1.0,1.0
19.94,64.504,1.0,1.0,1.0
20.0,64.504,1.0,1.0,1.0
20.06,61.504,1.0,1.0,1.0
20.12,58.496,1.0,1.0,1.0
20.18,65.504,1.0,1.0,1.0
20.24,72.504,1.0,1.0,1.0
20.3,53.496,1.0,1.0,1.0
20.36,57.992,1.0,1.0,1.0
20.42,54.496,1.0,1.0,1.0
20.48,39.504,1.0,1.0,1.0
20.54,51.4881,1.0,1.0,1.0
20.6,69.008,1.0,1.0,1.0
20.66,54.008,1.0,1.0,1.0
20.72,68.0,1.0,1.0,1.0
20.78,41.992,1.0,1.0,1.0
20.84,52.504,1.0,1.0,1.0
20.9,68.0,1.0,1.0,1.0
20.96,59.992,1.0,1.0,1.0
21.02,70.0,1.0,1.0,1.0
21.08,78.008,1.0,1.0,1.0
21.14,80.0,1.0,1.0,1.0
21.2,81.496,1.0,1.0,1.0
21.26,89.496,1.0,1.0,1.0
21.32,87.0,1.0,1.0,1.0
21.38,91.008,1.0,1.0,1.0
21.44,75.0,1.0,1.0,1.0
21.5,100.008,1.0,1.0,1.0
21.56,110.992,1.0,1.0,1.0
21.62,132.0,1.0,1.0,1.0
21.68,179.4881,1.0,1.0,1.0
21.74,252.4881,1.0,1.0,1.0
21.8,399.4721,1.0,1.0,1.0
21.86,522.0079,1.0,1.0,1.0
21.92,667.9921,1.0,1.0,1.0
21.98,785.0398,1.0,1.0,1.0
22.04,990.4801,1.0,1.0,1.0
22.1,1110.512,1.0,1.0,1.0
22.16,1145.0,1.0,1.0,1.0
22.22,1205.02,1.0,1.0,1.0
22.28,1444.512,1.0,1.0,1.0
22.34,1606.06,1.0,1.0,1.0
22.4,1839.53,1.0,1.0,1.0
22.46,2355.08,1.0,1.0,1.0
22.52,3237.54,1.0,1.0,1.0
22.58,3990.53,1.0,1.0,1.0
22.64,4598.55,1.0,1.0,1.0
22.7,5394.54,1.0,1.0,1.0
22.76,5883.98,1.0,1.0,1.0
22.82,4888.52,1.0,1.0,1.0
22.88,3532.99,1.0,1.0,1.0
22.94,2987.46,1.0,1.0,1.0
23.0,3030.94,1.0,1.0,1.0
23.06,2856.99,1.0,1.0,1.0
23.12,3036.02,1.0,1.0,1.0
23.18,3614.01,1.0,1.0,1.0
23.24,4678.46,1.0,1.0,1.0
23.3,7359.49,1.0,1.0,1.0
23.36,31709.4,1.0,1.0,1.0
23.42,1059364.25,1.0,1.0,1.0
23.48,1044726.375,1.0,1.0,1.0
23.54,180936.25,1.0,1.0,1.0
23.6,9432.4,1.0,1.0,1.0
23.66,3508.52,1.0,1.0,1.0
23.72,1740.02,1.0,1.0,1.0
23.78,1172.0,1.0,1.0,1.0
23.84,818.0,1.0,1.0,1.0
23.9,534.5279,1.0,1.0,1.0
23.96,368.0,1.0,1.0,1.0
24.02,210.0,1.0,1.0,1.0
24.08,115.5119,1.0,1.0,1.0
24.14,118.5119,1.0,1.0,1.0
24.2,121.504,1.0,1.0,1.0
24.26,129.008,1.0,1.0,1.0
24.32,95.504,1.0,1.0,1.0
24.38,94.008,1.0,1.0,1.0
24.44,100.0,1.0,1.0,1.0
24.5,102.008,1.0,1.0,1.0
24.56,81.4881,1.0,1.0,1.0
24.62,109.0,1.0,1.0,1.0
24.68,81.504,1.0,1.0,1.0
24.74,90.008,1.0,1.0,1.0
24.8,99.504,1.0,1.0,1.0
24.86,76.5119,1.0,1.0,1.0
24.92,67.496,1.0,1.0,1.0
24.98,57.0,1.0,1.0,1.0
25.04,59.008,1.0,1.0,1.0
25.1,62.008,1.0,1.0,1.0
25.16,47.504,1.0,1.0,1.0
25.22,49.0,1.0,1.0,1.0
25.28,50.4881,1.0,1.0,1.0
25.34,44.992,1.0,1.0,1.0
25.4,53.496,1.0,1.0,1.0
25.46,29.496,1.0,1.0,1.0
25.52,42.0,1.0,1.0,1.0
25.58,33.992,1.0,1.0,1.0
25.64,44.0,1.0,1.0,1.0
25.7,45.4881,1.0,1.0,1.0
25.76,38.008,1.0,1.0,1.0
25.82,39.504,1.0,1.0,1.0
25.88,27.992,1.0,1.0,1.0
25.94,44.992,1.0,1.0,1.0
26.0,42.504,1.0,1.0,1.0
26.06,52.4881,1.0,1.0,1.0
26.12,48.0,1.0,1.0,1.0
26.18,41.0,1.0,1.0,1.0
26.24,41.496,1.0,1.0,1.0
26.3,33.0,1.0,1.0,1.0
26.36,47.0,1.0,1.0,1.0
26.42,17.0,1.0,1.0,1.0
26.48,22.0,1.0,1.0,1.0
26.54,33.992,1.0,1.0,1.0
26.6,25.504,1.0,1.0,1.0
26.66,20.504,1.0,1.0,1.0
26.72,49.496,1.0,1.0,1.0
26.78,28.496,1.0,1.0,1.0
26.84,42.504,1.0,1.0,1.0
26.9,33.504,1.0,1.0,1.0
26.96,34.0,1.0,1.0,1.0
27.02,44.008,1.0,1.0,1.0
27.08,24.496,1.0,1.0,1.0
27.14,23.504,1.0,1.0,1.0
27.2,39.496,1.0,1.0,1.0
27.26,44.0,1.0,1.0,1.0
27.32,39.008,1.0,1.0,1.0
27.38,26.496,1.0,1.0,1.0
27.44,31.496,1.0,1.0,1.0
27.5,31.992,1.0,1.0,1.0
27.56,38.0,1.0,1.0,1.0
27.62,25.504,1.0,1.0,1.0
27.68,29.992,1.0,1.0,1.0
27.74,21.0,1.0,1.0,1.0
27.8,48.0,1.0,1.0,1.0
27.86,32.504,1.0,1.0,1.0
27.92,30.0,1.0,1.0,1.0
27.98,39.008,1.0,1.0,1.0
28.04,24.504,1.0,1.0,1.0
28.1,20.0,1.0,1.0,1.0
28.16,28.0,1.0,1.0,1.0
28.22,27.0,1.0,1.0,1.0
28.28,17.0,1.0,1.0,1.0
28.34,19.008,1.0,1.0,1.0
28.4,17.496,1.0,1.0,1.0
28.46,25.504,1.0,1.0,1.0
28.52,29.0,1.0,1.0,1.0
28.58,27.0,1.0,1.0,1.0
28.64,29.504,1.0,1.0,1.0
28.7,24.496,1.0,1.0,1.0
28.76,20.496,1.0,1.0,1.0
28.82,29.0,1.0,1.0,1.0
28.88,26.0,1.0,1.0,1.0
28.94,31.504,1.0,1.0,1.0
29.0,13.0,1.0,1.0,1.0
0.45,380080.0,1.0,1.0,1.0
0.51,406417.5,1.0,1.0,1.0
0.57,394035.5,1.0,1.0,1.0
0.63,339256.0,1.0,1.0,1.0
0.69,252179,1.0,1.0,1.0
0.75,166050,1.0,1.0,1.0
0.81,99987,1.0,1.0,1.0
0.87,55938,1.0,1.0,1.0
0.93,28161.5,1.0,1.0,1.0
0.99,13722,1.0,1.0,1.0
1.05,8685.5,1.0,1.0,1.0
1.11,7211.5,1.0,1.0,1.0
1.17,5606.001,1.0,1.0,1.0
1.23,4172.5,1.0,1.0,1.0
1.29,2719,1.0,1.0,1.0
1.35,1824.5,1.0,1.0,1.0
1.41,1762,1.0,1.0,1.0
1.47,2902.5,1.0,1.0,1.0
1.53,3647.5,1.0,1.0,1.0
1.59,3084,1.0,1.0,1.0
1.65,1935,1.0,1.0,1.0
1.71,1407.5,1.0,1.0,1.0
1.77,1188,1.0,1.0,1.0
1.83,1001.0,1.0,1.0,1.0
1.89,819.5002,1.0,1.0,1.0
1.95,746.4999,1.0,1.0,1.0
2.01,694.0,1.0,1.0,1.0
2.07,618.0001,1.0,1.0,1.0
2.13,566.4999,1.0,1.0,1.0
2.19,374.9999,1.0,1.0,1.0
2.25,350.4999,1.0,1.0,1.0
2.31,303.5003,1.0,1.0,1.0
2.37,268.5003,1.0,1.0,1.0
2.43,258.4999,1.0,1.0,1.0
2.49,226.5001,1.0,1.0,1.0
2.55,177.0002,1.0,1.0,1.0
2.61,143.0001,1.0,1.0,1.0
2.67,159.4999,1.0,1.0,1.0
2.73,171.0,1.0,1.0,1.0
2.79,190.4999,1.0,1.0,1.0
2.85,160.5001,1.0,1.0,1.0
2.91,129.4999,1.0,1.0,1.0
2.97,99.9999,1.0,1.0,1.0
3.03,101.5001,1.0,1.0,1.0
3.09,107.0,1.0,1.0,1.0
3.15,91.4999,1.0,1.0,1.0
3.21,105.0,1.0,1.0,1.0
3.27,109.0001,1.0,1.0,1.0
3.33,167.9999,1.0,1.0,1.0
3.39,135.9999,1.0,1.0,1.0
3.45,96.4998,1.0,1.0,1.0
3.51,94.9999,1.0,1.0,1.0
3.57,70.5001,1.0,1.0,1.0
3.63,60.0,1.0,1.0,1.0
3.69,74.9999,1.0,1.0,1.0
3.75,72.0001,1.0,1.0,1.0
3.81,60.0,1.0,1.0,1.0
3.87,76.0,1.0,1.0,1.0
3.93,77.4999,1.0,1.0,1.0
3.99,89.5002,1.0,1.0,1.0
4.05,46.0001,1.0,1.0,1.0
4.11,72.5001,1.0,1.0,1.0
4.17,72.0001,1.0,1.0,1.0
4.23,68.0,1.0,1.0,1.0
4.29,68.4999,1.0,1.0,1.0
4.35,79.0,1.0,1.0,1.0
4.41,71.0001,1.0,1.0,1.0
4.47,52.0,1.0,1.0,1.0
4.5,43.0,1.0,1.0,1.0

File: 22170_SL(CO)L_001_XRD_2_2-Theta_Omega.asc
*TYPE		=  Raw
*CLASS		=  ASCII CLASS
*SAMPLE		=
*COMMENT	=
*FNAME		=  22170_SL(CO)L_001_XRD_2_2-Theta_Omega.asc
*DATE		=  07-Jan-23 09:36

*GROUP_COUNT	=  1
*GONIO		=  SmartLab(In-plane), 0.000000
*ATTACHMENT	=  Z-Phi Stage
*ASC		=  0, 0, 0.000000, 0.000000
*I_MONOCHRO	=  Ge(220)x2, 0.000000
*FILTER		=  None
*C_MONOCHRO	=  None, 0.000000
*SLIT_NAME	=  0, Incident slit
*SLIT_NAME	=  1, Receiving slit # 1
*SLIT_NAME	=  2, Receiving slit # 2
*COUNTER	=  D/teX Ultra 250, 0
*POS_FORMAT	=  0
*SCAN_AXIS	=  2Theta/Omega
*MEAS_MODE	=  Continuous Scanning
*TARGET		=  29
*XRAY_CHAR	=  K-ALPHA1
*WAVE_LENGTH1	=  1.54059
*WAVE_LENGTH2	=  1.54441
*THICKNESS	=  0, 0.000000
*MU		=  0, 0.000000
*SCAN_MODE	=  2Theta/Omega
*SPEED_DIM	=  sec./step
*XUNIT		=  deg.
*YUNIT		=  counts
*SCALE_MODE	=  1
*REP_COUNT	=  0
*SE_COUNT	=  0
*STD_MATERIAL	=  Unknown, Unknown, 0.000000, 0.000000, 0.000000, 0.000000, 0.000000, 0.000000
*LATT_CONS	=  0, Unknown, Unknown, 0.000000, 0.000000, 0.000000, 0.000000, 0.000000, 0.000000
*SEC_COUNT	=  2
*TSPEC_SIZE	=  0
*EXTRA_SIZE	=  0
*MEMO		=

*BEGIN
*GROUP		=  0
*START		=  17
*STOP		=  29
*STEP		=  0.01
*OFFSET		=  -0.297600
*SPEED		=  59.958
*SLIT_SPEC	=  0, 0.400mm, 0.4, 0.000000
*SLIT_SPEC	=  1, 0.400mm, 0.4, 0.000000
*SLIT_SPEC	=  2, 0.400mm, 0.4, 0.000000
*KV		=  40
*MA		=  30
*LOW		=  0.000000
*HIGH		=  0.000000
*CTEMPER	=  0, 0.000000
*CTEMPER	=  1, 0.000000
*CTEMPER	=  2, 0.000000
*PAREX		=  0, 0.000000
*PAREX		=  1, 0.000000
*PAREX		=  2, 0.000000
*PAREX		=  3, 0.000000
*PAREX		=  4, 0.000000
*PAREX		=  5, 0.000000
*PAREX		=  6, 0.000000
*PAREX		=  7, 0.000000
*PAREX		=  8, 0.000000
*PAREX		=  9, 0.000000
*PAREX		=  10, 0.000000
*PAREX		=  11, 0.000000
*PAREX		=  12, 0.000000
*PAREX		=  13, 0.000000
*PAREX		=  14, 0.000000
*PAREX		=  15, 0.000000
*FULL_SCALE	=  58067.6
*INDEX		=  0, 0, 0
*COUNT		=  1201
28.008, 62.992, 45, 45.008
58.496, 39.008, 67.504, 32.992
34, 25.496, 44.008, 53
42.504, 47.504, 41.9841, 47.504
55, 47.496, 40, 56.504
56.504, 28.496, 52.504, 54.496
39.504, 46, 59.504, 49.992
41.504, 65.496, 49.504, 54.496
47.496, 67.504, 44.496, 40.504
53.504, 44.496, 48.008, 48
22.0159, 52.992, 62.992, 46.008
69.008, 42.992, 45.008, 50
49, 25.496, 35.008, 47.496
39, 32, 26.504, 39.504
52, 47.496, 46.504, 80
57.504, 42.992, 61.504, 42.496
49.4881, 32, 62, 58.504
52.008, 48.992, 55.504, 33.496
55.504, 63, 29.992, 40.504
60.504, 58.496, 49.504, 44
40.496, 60.504, 34, 47.496
27.504, 43, 48.496, 37.504
31.5199, 51.4801, 39.008, 33.992
49.992, 62.008, 43.4881, 46.008
55, 57.5119, 39.992, 36.496
55.504, 53.992, 41.504, 59
54.5119, 55.4881, 59.008, 39
63.008, 47.496, 58.496, 52
39, 46, 37.504, 53.008
39, 32, 65.496, 36.008
53.496, 27.504, 67.5119, 47.9841
52.4881, 54.504, 59, 43.504
51.504, 44.496, 35.496, 52.504
70.5119, 59.4881, 45, 49
50, 72.504, 50.496, 100
59, 50.4881, 43, 45
62, 48.008, 73.496, 42.496
50.008, 58.504, 71.496, 45.992
40.504, 64.4881, 61.504, 58.496
58.496, 41.5119, 46.4881, 34
44, 65, 72.496, 59.504
62.992, 61.5119, 53.496, 62.496
57.992, 61, 61.5119, 55.992
40.992, 98.008, 81.496, 52.496
73, 58.008, 51.4881, 41
69.008, 47.992, 52.504, 47.504
57, 49.504, 46.496, 31.5119
60.008, 65, 41.992, 62.008
52.504, 72, 50.504, 78.992
65.504, 69.008, 51.496, 82
53.5119, 86.992, 70, 52.992
78.008, 82, 84.008, 74.4881
91.504, 80.504, 105.504, 95.992
88.5119, 78, 89.496, 90.496
87, 99.496, 101.504, 83
100.504, 106.496, 79.504, 99.992
109.504, 126.992, 100.008, 99.496
110.992, 103, 124.504, 126.496
150.504, 172.992, 150.496, 173.016
257.008, 276.008, 252.488, 297
399.472, 377.504, 425.512, 464.512
601.008, 607, 647.008, 716
765.488, 795.984, 785.04, 816.488
990.48, 986.048, 1042.46, 1049.06
1102.99, 1220.53, 1153.99, 1110.01
1145.48, 1133.46, 1205.02, 1167.54
1444.51, 1475.95, 1520.52, 1481.99
1627.46, 1635.01, 1678.96, 1723.58
2178.02, 2275.5, 2355.08, 2510.45
3237.54, 3414.45, 3512.66, 3657.45
4345.02, 4191.94, 4320.07, 4446.98
5196.96, 5395.44, 5394.54, 5663.6
5883.98, 5671.54, 5587.01, 5504.5
4544.01, 4186.54, 3990.43, 3678.96
3008.97, 2992.46, 2987.46, 3006.06
3030.94, 3058.46, 3127.04, 3034.97
2914.97, 2853.01, 2913.02, 2848.5
3283.03, 3534.95, 3614.01, 3637.04
4678.46, 4904.99, 5347.52, 5652.06
9944.11, 11654.8, 14585.2, 20342.2
1379195, 1140850, 1059364.3, 1237758.8
1044726.4, 1280581.4, 1730104.3, 2285970
34396.9, 22656.3, 16064, 12129.8
4510.83, 3976.49, 3508.52, 2958.45
1740.02, 1753.5, 1515.98, 1439.01
1002.98, 964, 931.016, 793.48
631.032, 560.448, 534.528, 526.504
368, 349.016, 312.488, 297.504
196.496, 186.016, 189.984, 151.496
134.008, 125.48, 118.512, 105.496
121.504, 155.992, 159.992, 117.504
121, 112, 119.992, 130.992
114.008, 141.992, 94.008, 126.496
100, 114, 90.496, 115
95, 96, 109, 82.504
88.4881, 80.504, 109, 102.512
81.504, 105, 97.496, 104.992
119.992, 81.0159, 103.496, 81.496
65.008, 70.992, 76.5119, 95.992
67.496, 60, 52, 59
64.504, 69.496, 52.496, 48.504
65, 51, 62.008, 64.496
47.504, 69.008, 52.992, 60.992
46.992, 36.008, 62.992, 52.5119
39.008, 33.496, 44.992, 35.008
53.496, 41.504, 35.504, 72.496
43, 33.504, 45.504, 46.496
36.5119, 39.496, 33.992, 58
44, 69.992, 48.504, 25.496
46.504, 35.496, 42.504, 46.496
25, 29, 39.504, 33.504
27.992, 30.008, 38.992, 64
35.496, 50.0159, 44.4881, 39.496
56, 53.008, 52.4881, 38
48, 52, 46.504, 60.496
68, 42.504, 33, 28
32, 23, 33, 26
47, 23.008, 37.992, 51.008
23, 39.008, 32.992, 32
35.504, 30.504, 33.992, 28.504
25.504, 30.496, 28.504, 20.496
26, 45.496, 45, 48.008
36.496, 31, 28.496, 35
42.504, 38.992, 25, 49
44, 24.504, 31.504, 30.992
36, 54.496, 44.008, 31.992
24.496, 45, 20.504, 21.496
26, 24, 20, 17.504
32.008, 25.992, 44, 32
39.008, 32.992, 40, 36
29, 31.008, 39.496, 26
36, 25.008, 31.992, 23
38, 15, 27.504, 41
38.504, 37.496, 32, 43.5119
19.496, 31, 21, 18.504
48, 27.496, 23, 47.008
19, 28.504, 27, 25
26.496, 28, 39.008, 26.992
24.504, 38, 21.504, 28.496
26, 35.504, 21.496, 21
25, 27.992, 27, 28
17, 60.504, 41.496, 42
31.504, 41.504, 22.992, 15.504
23, 18, 25.504, 20.496
29, 18.504, 28.504, 23.992
42.504, 34.504, 22.496, 38
26, 26.504, 24.496, 32
20.496, 18, 27, 20.504
30, 12, 29, 31
28.008, 18.992, 31.504, 20
13
*END

*BEGIN
*GROUP		=  0
*START		=  0.4
*STOP		=  4.5
*STEP		=  0.01
*OFFSET		=  -0.297600
*SPEED		=  5.95853
*SLIT_SPEC	=  0, 1.000mm, 1, 0.000000
*SLIT_SPEC	=  1, 1.000mm, 1, 0.000000
*SLIT_SPEC	=  2, 1.000mm, 1, 0.000000
*KV		=  40
*MA		=  30
*LOW		=  0.000000
*HIGH		=  0.000000
*CTEMPER	=  0, 0.000000
*CTEMPER	=  1, 0.000000
*CTEMPER	=  2, 0.000000
*PAREX		=  0, 0.000000
*PAREX		=  1, 0.000000
*PAREX		=  2, 0.000000
*PAREX		=  3, 0.000000
*PAREX		=  4, 0.000000
*PAREX		=  5, 0.000000
*PAREX		=  6, 0.000000
*PAREX		=  7, 0.000000
*PAREX		=  8, 0.000000
*PAREX		=  9, 0.000000
*PAREX		=  10, 0.000000
*PAREX		=  11, 0.000000
*PAREX		=  12, 0.000000
*PAREX		=  13, 0.000000
*PAREX		=  14, 0.000000
*PAREX		=  15, 0.000000
*FULL_SCALE	=  84282.6
*INDEX		=  0, 0, 0
*COUNT		=  411
335933, 346531, 354857, 363833
371741, 380080, 386321, 392026
396788, 399978, 404084, 406418
408154, 407140, 407676, 403695
398427, 394036, 387985, 380759
371633, 362360, 351957, 339256
325534, 310191, 297492, 282795
267106, 252179, 237057, 221851
207291, 193027, 180107, 166050
153863, 141704, 130367, 119227
109920, 99987, 91373, 83785
75414, 68828.5, 62108.5, 55938
50066.5, 44843, 39824.5, 35836.5
32020.5, 28161.5, 24835.5, 22446
19740.5, 17633.5, 15302.5, 13722
12238, 11207.5, 10130, 9520.5
8926, 8685.5, 8374, 8312
7742.5, 7734.5, 7628.5, 7211.5
7087, 6808.5, 6536, 6113.5
5742, 5606, 5295.5, 4938.5
4837.5, 4608, 4268, 4172.5
3809.5, 3515.5, 3515, 3237
3122.5, 2719, 2664.5, 2470.5
2116, 2045, 1941, 1824.5
1710.5, 1620, 1547.5, 1702.5
1661.5, 1762, 1996, 2137.5
2331.5, 2470, 2654, 2902.5
3199.5, 3290, 3552.5, 3647.5
3696.5, 3647.5, 3643.5, 3776
3672.5, 3337.5, 3185, 3084
2805, 2670.5, 2461.5, 2311
2189, 1935, 1909, 1790.5
1663, 1562.5, 1561.5, 1407.5
1481.5, 1374, 1272.5, 1316.5
1174, 1188, 1158, 1099.5
1051, 1070, 986.5, 1001
968.501, 909.5, 846, 890.5
852.5, 819.5, 868, 842.5
778.5, 774.5, 810.5, 746.5
733.5, 766, 729, 688.5
754, 694, 705, 699.5
640, 655, 616.5, 618
587, 627, 605.5, 541.5
547.5, 566.5, 476, 429.5
434.5, 404, 396.5, 375
391.5, 357.5, 314.5, 346
341.5, 350.5, 299, 343
306, 299.5, 298, 303.5
301.5, 306, 299, 297.5
293.5, 268.5, 254.5, 256.5
242.5, 235.5, 235, 258.5
242, 203.5, 214.5, 219.5
201, 226.5, 213.5, 210.5
155, 197, 191, 177
164.5, 155, 188.5, 156
156, 143, 159, 156
133.5, 167, 144, 159.5
134.5, 129.5, 139.5, 147
170.5, 171, 153, 188
175.5, 203, 193.5, 190.5
197, 182, 148, 152.5
152, 160.5, 160, 162
142, 151.5, 106.5, 129.5
136, 123.5, 112, 93.4998
130, 99.9999, 75.5001, 96.4999
85.5001, 127, 116, 101.5
116.5, 82, 102, 117
75.5003, 107, 96, 94.5001
106, 89, 84.5001, 91.4999
96.4999, 84.5001, 97.5001, 110.5
95.4999, 105, 99.5001, 89.0001
88, 116.5, 126.5, 109
119.5, 157.5, 144.5, 174.5
149, 168, 129, 150
178.5, 187, 139.5, 136
139, 123.5, 140, 111
113.5, 96.4998, 140.5, 89.4998
111, 113.5, 63.5002, 94.9999
76.0001, 72.5001, 64.9999, 72.9999
89.5002, 70.5001, 72, 49
78.4998, 74.0001, 74, 60
84.9999, 93.5002, 60.9999, 81.5001
65.4999, 74.9999, 85.0001, 68.4999
68.0001, 57.4999, 63, 72.0001
64, 72.9999, 77.4999, 66.5001
64.5001, 60, 95.9999, 82.4999
68, 72.5001, 78.5002, 76
59.4999, 53, 76.5001, 84.9998
66.5002, 77.4999, 71.5001, 64.9999
63.5001, 75, 76.4999, 89.5002
78.4998, 97.4999, 89.0002, 93.9999
91.4999, 46.0001, 81.4999, 63.0001
59.9999, 76, 91.5001, 72.5001
74.4998, 57.0001, 77.4999, 56.5001
45.9999, 72.0001, 42.4999, 74.5001
69.4999, 62.0001, 73.9998, 68
83.5002, 69.5001, 83, 65
55, 68.4999, 56.4999, 70.5001
65.9999, 73, 55.5001, 79
57.5001, 64.4999, 67.0001, 48.4998
67.5001, 71.0001, 64, 67.4998
66, 56.0001, 62, 52
58.4999, 62, 43
*END

*EOF

File: 22170_SL(CO)L_002_XRD.csv
#twotheta, yobs, ycal, bkg, diff
42.0,60.0,1.0,1.0,1.0
42.04,65.4833,1.0,1.0,1.0
42.08,77.0,1.0,1.0,1.0
42.12,55.0,1.0,1.0,1.0
42.16,39.5056,1.0,1.0,1.0
42.2,74.0,1.0,1.0,1.0
42.24,50.0,1.0,1.0,1.0
42.28,55.9889,1.0,1.0,1.0
42.32,73.4833,1.0,1.0,1.0
42.36,78.5056,1.0,1.0,1.0
42.4,57.5056,1.0,1.0,1.0
42.44,68.9778,1.0,1.0,1.0
42.48,74.0,1.0,1.0,1.0
42.52,76.4944,1.0,1.0,1.0
42.56,57.0,1.0,1.0,1.0
42.6,63.5056,1.0,1.0,1.0
42.64,76.5056,1.0,1.0,1.0
42.68,61.5056,1.0,1.0,1.0
42.72,74.0,1.0,1.0,1.0
42.76,86.9889,1.0,1.0,1.0
42.8,70.5056,1.0,1.0,1.0
42.84,78.0,1.0,1.0,1.0
42.88,62.4944,1.0,1.0,1.0
42.92,70.0111,1.0,1.0,1.0
42.96,70.0111,1.0,1.0,1.0
43.0,52.4944,1.0,1.0,1.0
43.04,62.4833,1.0,1.0,1.0
43.08,73.0,1.0,1.0,1.0
43.12,98.0,1.0,1.0,1.0
43.16,78.0,1.0,1.0,1.0
43.2,73.5056,1.0,1.0,1.0
43.24,72.0,1.0,1.0,1.0
43.28,82.0111,1.0,1.0,1.0
43.32,75.0111,1.0,1.0,1.0
43.36,80.4944,1.0,1.0,1.0
43.4,61.4944,1.0,1.0,1.0
43.44,74.5056,1.0,1.0,1.0
43.48,74.9889,1.0,1.0,1.0
43.52,83.0,1.0,1.0,1.0
43.56,94.5278,1.0,1.0,1.0
43.6,84.0,1.0,1.0,1.0
43.64,72.4944,1.0,1.0,1.0
43.68,102.5056,1.0,1.0,1.0
43.72,92.5056,1.0,1.0,1.0
43.76,102.9889,1.0,1.0,1.0
43.8,98.5167,1.0,1.0,1.0
43.84,95.0111,1.0,1.0,1.0
43.88,84.0,1.0,1.0,1.0
43.92,109.9889,1.0,1.0,1.0
43.96,107.4944,1.0,1.0,1.0
44.0,127.0,1.0,1.0,1.0
44.04,93.0,1.0,1.0,1.0
44.08,117.4833,1.0,1.0,1.0
44.12,99.9889,1.0,1.0,1.0
44.16,108.0111,1.0,1.0,1.0
44.2,130.5167,1.0,1.0,1.0
44.24,136.0111,1.0,1.0,1.0
44.28,148.0,1.0,1.0,1.0
44.32,129.4944,1.0,1.0,1.0
44.36,121.5167,1.0,1.0,1.0
44.4,140.4944,1.0,1.0,1.0
44.44,127.9889,1.0,1.0,1.0
44.48,135.5167,1.0,1.0,1.0
44.52,142.4944,1.0,1.0,1.0
44.56,137.5167,1.0,1.0,1.0
44.6,129.0111,1.0,1.0,1.0
44.64,142.9889,1.0,1.0,1.0
44.68,161.4833,1.0,1.0,1.0
44.72,130.9667,1.0,1.0,1.0
44.76,179.0111,1.0,1.0,1.0
44.8,212.9889,1.0,1.0,1.0
44.84,239.9889,1.0,1.0,1.0
44.88,252.5278,1.0,1.0,1.0
44.92,229.0111,1.0,1.0,1.0
44.96,285.0333,1.0,1.0,1.0
45.0,383.4722,1.0,1.0,1.0
45.04,471.9556,1.0,1.0,1.0
45.08,545.4833,1.0,1.0,1.0
45.12,648.4833,1.0,1.0,1.0
45.16,906.0,1.0,1.0,1.0
45.2,978.0,1.0,1.0,1.0
45.24,1298.38,1.0,1.0,1.0
45.28,1462.48,1.0,1.0,1.0
45.32,1474.47,1.0,1.0,1.0
45.36,1575.98,1.0,1.0,1.0
45.4,1694.49,1.0,1.0,1.0
45.44,1832.51,1.0,1.0,1.0
45.48,2025.96,1.0,1.0,1.0
45.52,2382.47,1.0,1.0,1.0
45.56,2980.41,1.0,1.0,1.0
45.6,3843.0,1.0,1.0,1.0
45.64,4868.02,1.0,1.0,1.0
45.68,6302.51,1.0,1.0,1.0
45.72,8208.03,1.0,1.0,1.0
45.76,10471.7,1.0,1.0,1.0
45.8,12762.8,1.0,1.0,1.0
45.84,14493.2,1.0,1.0,1.0
45.88,16029.5,1.0,1.0,1.0
45.92,17157.1,1.0,1.0,1.0
45.96,17737.5,1.0,1.0,1.0
46.0,17815.1,1.0,1.0,1.0
46.04,17718.6,1.0,1.0,1.0
46.08,17338.3,1.0,1.0,1.0
46.12,17001.6,1.0,1.0,1.0
46.16,16060.3,1.0,1.0,1.0
46.2,14061.9,1.0,1.0,1.0
46.24,12135.5,1.0,1.0,1.0
46.28,9583.1,1.0,1.0,1.0
46.32,8128.99,1.0,1.0,1.0
46.36,7091.47,1.0,1.0,1.0
46.4,6620.65,1.0,1.0,1.0
46.44,6729.94,1.0,1.0,1.0
46.48,7330.1,1.0,1.0,1.0
46.52,8200.94,1.0,1.0,1.0
46.56,8594.02,1.0,1.0,1.0
46.6,8691.167,1.0,1.0,1.0
46.64,8164.59,1.0,1.0,1.0
46.68,7555.97,1.0,1.0,1.0
46.72,6615.08,1.0,1.0,1.0
46.76,5913.97,1.0,1.0,1.0
46.8,5053.11,1.0,1.0,1.0
46.84,4173.48,1.0,1.0,1.0
46.88,3488.57,1.0,1.0,1.0
46.92,2863.53,1.0,1.0,1.0
46.96,2388.45,1.0,1.0,1.0
47.0,2093.54,1.0,1.0,1.0
47.04,1942.94,1.0,1.0,1.0
47.08,1694.0,1.0,1.0,1.0
47.12,1609.04,1.0,1.0,1.0
47.16,1447.01,1.0,1.0,1.0
47.2,1459.99,1.0,1.0,1.0
47.24,1523.03,1.0,1.0,1.0
47.28,1796.94,1.0,1.0,1.0
47.32,2080.48,1.0,1.0,1.0
47.36,2556.52,1.0,1.0,1.0
47.4,2809.45,1.0,1.0,1.0
47.44,2900.11,1.0,1.0,1.0
47.48,2928.0,1.0,1.0,1.0
47.52,3036.94,1.0,1.0,1.0
47.56,3235.41,1.0,1.0,1.0
47.6,3210.0,1.0,1.0,1.0
47.64,3566.51,1.0,1.0,1.0
47.68,3908.97,1.0,1.0,1.0
47.72,4796.49,1.0,1.0,1.0
47.76,6605.96,1.0,1.0,1.0
47.8,11051.8,1.0,1.0,1.0
47.84,23152.334,1.0,1.0,1.0
47.88,60260.4,1.0,1.0,1.0
47.92,305640,1.0,1.0,1.0
47.96,1099223.625,1.0,1.0,1.0
48.0,11748200.0,1.0,1.0,1.0
48.04,2527615.5,1.0,1.0,1.0
48.08,1337746.125,1.0,1.0,1.0
48.12,79379.4,1.0,1.0,1.0
48.16,16526.4,1.0,1.0,1.0
48.2,7383.65,1.0,1.0,1.0
48.24,4361.47,1.0,1.0,1.0
48.28,2960.99,1.0,1.0,1.0
48.32,2029.54,1.0,1.0,1.0
48.36,1533.96,1.0,1.0,1.0
48.4,1169.98,1.0,1.0,1.0
48.44,934.4833,1.0,1.0,1.0
48.48,729.9889,1.0,1.0,1.0
48.52,644.5056,1.0,1.0,1.0
48.56,547.5056,1.0,1.0,1.0
48.6,441.4722,1.0,1.0,1.0
48.64,401.5278,1.0,1.0,1.0
48.68,321.9667,1.0,1.0,1.0
48.72,346.0111,1.0,1.0,1.0
48.76,349.9667,1.0,1.0,1.0
48.8,318.0,1.0,1.0,1.0
48.84,283.9889,1.0,1.0,1.0
48.88,279.5056,1.0,1.0,1.0
48.92,269.9889,1.0,1.0,1.0
48.96,271.9778,1.0,1.0,1.0
49.0,224.0,1.0,1.0,1.0
49.04,198.0333,1.0,1.0,1.0
49.08,202.4944,1.0,1.0,1.0
49.12,177.4944,1.0,1.0,1.0
49.16,153.0,1.0,1.0,1.0
49.2,139.4944,1.0,1.0,1.0
49.24,135.4944,1.0,1.0,1.0
49.28,113.5056,1.0,1.0,1.0
49.32,139.4722,1.0,1.0,1.0
49.36,127.9778,1.0,1.0,1.0
49.4,119.4944,1.0,1.0,1.0
49.44,98.9889,1.0,1.0,1.0
49.48,96.0,1.0,1.0,1.0
49.52,126.0111,1.0,1.0,1.0
49.56,87.4944,1.0,1.0,1.0
49.6,87.4833,1.0,1.0,1.0
49.64,93.4944,1.0,1.0,1.0
49.68,91.4833,1.0,1.0,1.0
49.72,101.4944,1.0,1.0,1.0
49.76,84.5056,1.0,1.0,1.0
49.8,89.4944,1.0,1.0,1.0
49.84,69.4944,1.0,1.0,1.0
49.88,91.5056,1.0,1.0,1.0
49.92,74.9889,1.0,1.0,1.0
49.96,75.9889,1.0,1.0,1.0
50.0,86.0111,1.0,1.0,1.0
50.04,64.4944,1.0,1.0,1.0
50.08,91.0111,1.0,1.0,1.0
50.12,65.5056,1.0,1.0,1.0
50.16,58.0111,1.0,1.0,1.0
50.2,39.0,1.0,1.0,1.0
50.24,60.5056,1.0,1.0,1.0
50.28,84.4944,1.0,1.0,1.0
50.32,45.5056,1.0,1.0,1.0
50.36,59.0,1.0,1.0,1.0
50.4,56.9889,1.0,1.0,1.0
50.44,55.5167,1.0,1.0,1.0
50.48,62.5167,1.0,1.0,1.0
50.52,52.4944,1.0,1.0,1.0
50.56,68.9889,1.0,1.0,1.0
50.6,67.0,1.0,1.0,1.0
50.64,58.0111,1.0,1.0,1.0
50.68,69.0111,1.0,1.0,1.0
50.72,45.5056,1.0,1.0,1.0
50.76,65.5056,1.0,1.0,1.0
50.8,69.0111,1.0,1.0,1.0
50.84,55.0,1.0,1.0,1.0
50.88,53.0,1.0,1.0,1.0
50.92,73.9889,1.0,1.0,1.0
50.96,47.5056,1.0,1.0,1.0
51.0,54.0111,1.0,1.0,1.0
51.04,56.0,1.0,1.0,1.0
51.08,61.0111,1.0,1.0,1.0
51.12,24.5167,1.0,1.0,1.0
51.16,39.4944,1.0,1.0,1.0
51.2,41.0,1.0,1.0,1.0
51.24,40.0111,1.0,1.0,1.0
51.28,48.4944,1.0,1.0,1.0
51.32,44.0,1.0,1.0,1.0
51.36,48.4944,1.0,1.0,1.0
51.4,46.0,1.0,1.0,1.0
51.44,44.0,1.0,1.0,1.0
51.48,49.0111,1.0,1.0,1.0
51.52,53.4944,1.0,1.0,1.0
51.56,33.5056,1.0,1.0,1.0
51.6,53.0111,1.0,1.0,1.0
51.64,80.0111,1.0,1.0,1.0
51.68,56.0111,1.0,1.0,1.0
51.72,58.0111,1.0,1.0,1.0
51.76,46.0,1.0,1.0,1.0
51.8,60.0,1.0,1.0,1.0
51.84,64.0,1.0,1.0,1.0
51.88,42.0,1.0,1.0,1.0
51.92,63.0111,1.0,1.0,1.0
51.96,50.4944,1.0,1.0,1.0
52.0,56.4944,1.0,1.0,1.0