Folder: Analysis/XRD:XRR/SCO/23002_SL(CO)L (part 2)

File: 23002_SL(CO)L_002_XRD_2-Theta_Omega.asc
*TYPE		=  Raw
*CLASS		=  ASCII CLASS
*SAMPLE		=
*COMMENT	=
*FNAME		=  23002_SL(CO)L_002_XRD_2-Theta_Omega.asc
*DATE		=  13-Jan-23 21:30

*GROUP_COUNT	=  1
*GONIO		=  SmartLab(In-plane), 0.000000
*ATTACHMENT	=  Z-Phi Stage
*ASC		=  0, 0, 0.000000, 0.000000
*I_MONOCHRO	=  Ge(220)x2, 0.000000
*FILTER		=  None
*C_MONOCHRO	=  None, 0.000000
*SLIT_NAME	=  0, Incident slit
*SLIT_NAME	=  1, Receiving slit # 1
*SLIT_NAME	=  2, Receiving slit # 2
*COUNTER	=  D/teX Ultra 250, 0
*POS_FORMAT	=  0
*SCAN_AXIS	=  2Theta/Omega
*MEAS_MODE	=  Continuous Scanning
*TARGET		=  29
*XRAY_CHAR	=  K-ALPHA1
*WAVE_LENGTH1	=  1.54059
*WAVE_LENGTH2	=  1.54441
*THICKNESS	=  0, 0.000000
*MU		=  0, 0.000000
*SCAN_MODE	=  2Theta/Omega
*SPEED_DIM	=  sec./step
*XUNIT		=  deg.
*YUNIT		=  counts
*SCALE_MODE	=  1
*REP_COUNT	=  0
*SE_COUNT	=  0
*STD_MATERIAL	=  Unknown, Unknown, 0.000000, 0.000000, 0.000000, 0.000000, 0.000000, 0.000000
*LATT_CONS	=  0, Unknown, Unknown, 0.000000, 0.000000, 0.000000, 0.000000, 0.000000, 0.000000
*SEC_COUNT	=  1
*TSPEC_SIZE	=  0
*EXTRA_SIZE	=  0
*MEMO		=

*BEGIN
*GROUP		=  0
*START		=  42
*STOP		=  52
*STEP		=  0.01
*OFFSET		=  0.0382
*SPEED		=  23.9588
*SLIT_SPEC	=  0, 0.400mm, 0.4, 0.000000
*SLIT_SPEC	=  1, 0.400mm, 0.4, 0.000000
*SLIT_SPEC	=  2, 0.400mm, 0.4, 0.000000
*KV		=  40
*MA		=  30
*LOW		=  0.000000
*HIGH		=  0.000000
*CTEMPER	=  0, 0.000000
*CTEMPER	=  1, 0.000000
*CTEMPER	=  2, 0.000000
*PAREX		=  0, 0.000000
*PAREX		=  1, 0.000000
*PAREX		=  2, 0.000000
*PAREX		=  3, 0.000000
*PAREX		=  4, 0.000000
*PAREX		=  5, 0.000000
*PAREX		=  6, 0.000000
*PAREX		=  7, 0.000000
*PAREX		=  8, 0.000000
*PAREX		=  9, 0.000000
*PAREX		=  10, 0.000000
*PAREX		=  11, 0.000000
*PAREX		=  12, 0.000000
*PAREX		=  13, 0.000000
*PAREX		=  14, 0.000000
*PAREX		=  15, 0.000000
*FULL_SCALE	=  237032
*INDEX		=  0, 0, 0
*COUNT		=  1001
8, 11.4944, 3.50555, 2
18, 13, 12, 9
11, 7, 6, 15
5, 9, 3, 55
15, 3, 11, 6.49445
8.50555, 18, 0.000000, 8
2.49445, 16.5056, 11, 10
12, 13, 3, 8
10, 14, 8, 10
6, 23, 10, 5
10, 18, 5, 13
9, 12, 13, 14
11, 8, 4.49445, 11.5056
13, 9, 12, 9
5.49445, 6.50555, 11, 12
2, 6, 16, 8
5, 13, 8, 8
19, 10, 14, 14
19, 12, 4, 14
11, 7, 1, 8
13.4944, 8.50555, 18, 8
0.494446, 4.50555, 4, 13
17, 16, 4, 13.4944
11, 11.5056, 11, 13
15, 10, 12, 9.49445
9.50555, 2, 17, 29.4944
11, 15.5056, 11, 10
9, 12.4944, 12, 9.50555
12.4944, 14.5056, 17, 9.98889
8.01111, 20, 8.49445, 19.5056
5.98889, 12, 14.0111, 11
7, 17.4944, 11.5056, 14
10, 23.9889, 20.5056, 14
22, 3.50555, 17, 21.4944
17.5056, 21, 13, 16.4944
23.5056, 30, 14.4944, 12.5056
14, 15, 4.49445, 9
22.4944, 23.0111, 13.4944, 14.5056
12, 22.4944, 26.5056, 21
28, 10, 31, 26
36, 44, 19, 17
24, 17, 29.4944, 30.5056
35, 25, 40.9889, 35.5056
36.4944, 50.0111, 32, 57.4944
55, 39.4944, 44, 39.0111
62, 56, 76.9667, 69.0222
78.5056, 68, 47.5056, 59.9778
71.5167, 59.5056, 51.9889, 82.5056
59.5056, 70.4833, 78.5167, 75.4944
95.4944, 88.5056, 91.5056, 76.4944
86, 129.483, 95.0111, 85.4944
128.494, 123.011, 108, 120.506
111.494, 107.011, 124.494, 100.494
111, 121.506, 131.989, 94.0111
110.472, 137.517, 117.494, 105
137.011, 129.494, 144.011, 125
162.989, 113.506, 118, 105.989
123.506, 121, 94.5056, 93.4944
104.011, 95, 75.5056, 98.4833
89.0111, 72.4944, 75, 51.4944
77.0111, 57.5056, 64, 56.4944
55.5056, 59.9889, 67, 69
67.5056, 60, 67, 60
56.5056, 56.9889, 63.0111, 53.9889
67.0111, 63.9778, 69.5167, 73
61, 69, 55.4944, 96.0111
71, 86.9778, 150, 83.4944
107.517, 113.506, 121.978, 119.506
122.011, 164, 138.989, 151.494
139.517, 150.472, 178.011, 166.011
158.506, 164.978, 183.483, 209.517
217.011, 237.506, 241.989, 274.528
266.483, 242.978, 272.011, 273
298, 295, 286.011, 335.989
336.989, 358.506, 383.022, 428.978
423.472, 387.033, 488.461, 543.539
424.472, 488.506, 506.494, 520.483
596.506, 540.517, 626, 709.978
700.517, 674.989, 714, 717.472
753.956, 794.067, 783.978, 899.011
847.506, 840.978, 865, 902.494
914.483, 934.517, 896.494, 915.472
936.539, 941.483, 951.056, 981.989
915.439, 941.506, 1006.04, 971.956
943.517, 916.989, 990.528, 926.506
923.967, 938.528, 859.506, 902.494
894.506, 855.506, 864, 823.022
756.472, 788, 724.506, 685
687.517, 601.55, 621.461, 606.517
605.506, 542.978, 527.506, 519.517
471.967, 474.539, 457.461, 455.989
435.539, 422.517, 444.978, 415.483
438, 423.472, 462.022, 456
406.517, 473.022, 455.989, 470.439
535.056, 520.506, 531.967, 575.011
590.483, 630, 641.528, 718.494
674.439, 726.517, 743.022, 772.483
765.506, 774.494, 834.956, 890.033
948.967, 984.056, 984.517, 1044.98
1087.47, 1061.51, 1091.49, 1098.54
1123.94, 1153.49, 1160.53, 1177.48
1216.44, 1233.08, 1316.46, 1341.02
1262.96, 1392.52, 1345.52, 1440.03
1429.96, 1607.47, 1588.49, 1566.52
1687.41, 1736.07, 1902.51, 1907.01
2021.92, 2146.45, 2282.53, 2293.07
2394.39, 2414.49, 2567.03, 2702.97
2746.99, 3037, 3051.08, 3211.96
3319.39, 3434.97, 3541.51, 3665.94
3911.93, 3974.66, 4050.92, 4190.02
4369.56, 4406.52, 4400.45, 4708.98
4730.56, 4893.32, 4759.01, 5016.06
5099.45, 5106.49, 5159.88, 5075.1
5225.07, 5294.93, 5366.91, 5393.06
5392.49, 5432.54, 5386.63, 5346.77
5451.59, 5350.96, 5407.01, 5280.52
5159.58, 5255.52, 5161.42, 4979.49
5015.04, 4916.89, 4902.65, 4761.46
4669.52, 4431.08, 4542.55, 4298.99
4018.01, 3944.45, 3888.59, 3806
3599.42, 3537.58, 3520.99, 3431.96
3271, 3149.61, 3058.81, 3114.65
3079.04, 3007.48, 2838.04, 2782
2903.98, 2947.01, 2827.97, 2699.03
2696.49, 2746.49, 2707.46, 2828.48
2857.59, 2643.45, 2751.49, 2867.49
2890.93, 2835.13, 2777.41, 2921.47
2887.06, 2843.52, 2950.49, 2960.97
3093.02, 2925.89, 3067.18, 3035.94
3059.92, 3025.06, 2979.51, 2970.47
3174.48, 3083.55, 2973.51, 2966.51
2974.46, 2779.06, 2803.06, 2701.96
2691.03, 2579.45, 2516.09, 2343.36
2331.14, 2196.52, 2026.44, 2003.08
1975.47, 1885.03, 1817.97, 1764.99
1580.59, 1531.48, 1488.88, 1419.61
1386.48, 1329, 1338.98, 1204.58
1165.97, 1151.98, 1085.06, 1118.48
1091.98, 1032.51, 1040.04, 1018.48
984, 972.461, 960.056, 942.989
904.022, 825.978, 908.978, 844.517
871.011, 861, 879.011, 888.517
929.472, 935.55, 1007.44, 1089.51
1121.49, 1118.48, 1434.46, 1478.01
1723.44, 1893.02, 2188.43, 2520.46
2881.51, 3365.34, 4002.46, 4675.9
5739.34, 6927.83, 8718.35, 10478.8
13248.6, 16813.5, 21260.5, 26699.2
34397.8, 43477.1, 55253.9, 69629
87821.1, 110709, 139898, 176815
226447, 299893, 485826, 1674670.8
4071262.8, 4630352, 4284083.5, 2477492.3
542295, 158557, 52646.7, 26284.5
16946.9, 12058.8, 8895.23, 6824.13
5587.16, 4555.64, 3824.02, 3494.68
2796.03, 2567.93, 2267.56, 2074.53
1914.52, 1782.52, 1615.99, 1484.57
1487.97, 1376.54, 1275.01, 1252.47
1161.01, 1153, 1194.93, 1069.58
959.944, 931.583, 926.417, 844.539
848.539, 793.483, 717.517, 698.528
636.45, 591.55, 582.022, 572.483
529.989, 485.483, 467.033, 399
386.011, 356, 320.494, 341.517
272, 303.506, 267.483, 238
275.506, 242.867, 247.617, 237.033
191.956, 185.517, 175.011, 141.506
181, 146, 125.011, 148.989
126.506, 128, 142.494, 147
113.506, 117, 114.989, 106.517
92.4944, 109.989, 68.0111, 85.5056
91.5056, 92.9889, 69.5056, 77.4944
67.5056, 87.5056, 87.4833, 86.0111
99, 65, 68.5056, 51.9889
72.5056, 69.4833, 81.5056, 75.5167
71.9889, 55.5056, 77.4944, 105.494
60.5167, 63.4833, 61.5056, 35.9889
58.0222, 55.4944, 50.4944, 60
60.0111, 41, 30, 48.4944
45.9889, 65.5167, 56, 49
67.9889, 53.5056, 27.5056, 39
42.4944, 37.4944, 48.0111, 33.4944
32, 40.4944, 42.4944, 41.5167
35.9889, 42.5056, 34.5056, 33
51, 46.4944, 41, 33.5056
45, 52.4944, 48, 31
41.5056, 35.4944, 31, 35.5056
34.4944, 35.5056, 50.4944, 40
48.4944, 37.4944, 32.5167, 27
27, 32, 39, 39
12, 19, 20, 16
18, 32.9889, 31.5056, 40.5056
34, 32, 22.4944, 32.5056
25, 17, 11.4944, 19.5056
16.4944, 22.5056, 25, 23
4.98889, 17.5056, 22.5056, 22.4944
27.4944, 18.0111, 15.4944, 13.5056
25, 24, 17, 22.4944
22.5056, 22, 10.4944, 3.50555
14.4833, 16.5167, 19, 10.4944
14.5056, 17.4944, 11.5056, 13
15.9889, 12.0111, 29, 10
31, 6, 16, 8.49445
17.5056, 11, 18.4944, 20
19.5056, 32, 13.4944, 11.5056
11, 9, 3, 10
9, 5, 8, 7
2, 17.9889, 21.5056, 13.5056
16, 17, 7.49445, 14.5056
15, 15, 13, 10
7.49445, 9, 13.5056, 7
10, 9.49445, 12, 20.5056
22.4944, 17.5056, 7, 6
10, 8, 11.4944, 10.5056
13, 3, 3, 8
6, 18.4944, 17.5056, 0.000000
9, 8, 2, 4
12, 5.49445, 11.5056, 5
6, 4, 12, 5
12.4944, 9.50555, 7, 10
7, 6, 11, 8.49445
8, 13.5056, 4, 2.49445
18, 7.50555, 16, 9
7, 7, 6, 8
4, 1.49445, 13.5056, 9
9, 12, 14, 11
12, 10.4944, 12.5056, 10
4, 14, 6, 18
14, 14.4944, 7, 8.50555
5, 8, 6, 3
0.000000, 9, 9, 4
8.49445, 53.5056, 8, 13
10, 7.49445, 7.50555, 13
11, 17, 7.49445, 14
10, 6.50555, 8, 3
12.4944, 10.5056, 12, 9
12, 12, 8, 11
9, 10, 15, 3
4.49445, 13.5056, 4, 8
3, 6, 4, 0.000000
8, 14, 12, 2
13, 7, 10, 14
8, 6, 8, 6.49445
7.50555, 15, 3.98889, 4.01111
4, 5, 15.9889, 10.0111
5.98889, 14.0111, 4, 5.49445
19.5056, 2, 4, 0.000000
7, 11, 7.49445, 11.5056
9, 8, 12, 9.98889
18.0111, 5, 4, 10
12
*END

*EOF