Folder: Analysis/XRD:XRR/SCO/23002_SL(CO)L

File: 23002_SL(CO)L_001_XRD.csv
#twotheta, yobs, ycal, bkg, diff
18.0,23.0,1.0,1.0,1.0
18.04,58.496,1.0,1.0,1.0
18.08,34.008,1.0,1.0,1.0
18.12,31.0,1.0,1.0,1.0
18.16,42.0,1.0,1.0,1.0
18.2,36.008,1.0,1.0,1.0
18.24,40.496,1.0,1.0,1.0
18.28,25.0,1.0,1.0,1.0
18.32,42.504,1.0,1.0,1.0
18.36,36.0,1.0,1.0,1.0
18.4,38.0,1.0,1.0,1.0
18.44,38.496,1.0,1.0,1.0
18.48,31.496,1.0,1.0,1.0
18.52,46.0,1.0,1.0,1.0
18.56,51.0,1.0,1.0,1.0
18.6,30.0,1.0,1.0,1.0
18.64,39.504,1.0,1.0,1.0
18.68,105.0,1.0,1.0,1.0
18.72,22.0,1.0,1.0,1.0
18.76,39.008,1.0,1.0,1.0
18.8,32.504,1.0,1.0,1.0
18.84,25.504,1.0,1.0,1.0
18.88,25.992,1.0,1.0,1.0
18.92,31.0,1.0,1.0,1.0
18.96,26.0,1.0,1.0,1.0
19.0,25.008,1.0,1.0,1.0
19.04,29.496,1.0,1.0,1.0
19.08,31.496,1.0,1.0,1.0
19.12,28.496,1.0,1.0,1.0
19.16,23.0,1.0,1.0,1.0
19.2,35.0,1.0,1.0,1.0
19.24,33.0,1.0,1.0,1.0
19.28,40.0,1.0,1.0,1.0
19.32,36.496,1.0,1.0,1.0
19.36,42.0,1.0,1.0,1.0
19.4,52.504,1.0,1.0,1.0
19.44,38.992,1.0,1.0,1.0
19.48,56.008,1.0,1.0,1.0
19.52,59.0,1.0,1.0,1.0
19.56,93.008,1.0,1.0,1.0
19.6,78.0,1.0,1.0,1.0
19.64,105.992,1.0,1.0,1.0
19.68,88.0,1.0,1.0,1.0
19.72,78.0,1.0,1.0,1.0
19.76,53.0159,1.0,1.0,1.0
19.8,42.0,1.0,1.0,1.0
19.84,51.008,1.0,1.0,1.0
19.88,47.504,1.0,1.0,1.0
19.92,21.0,1.0,1.0,1.0
19.96,46.992,1.0,1.0,1.0
20.0,54.992,1.0,1.0,1.0
20.04,60.496,1.0,1.0,1.0
20.08,74.0159,1.0,1.0,1.0
20.12,29.496,1.0,1.0,1.0
20.16,37.504,1.0,1.0,1.0
20.2,63.008,1.0,1.0,1.0
20.24,45.9841,1.0,1.0,1.0
20.28,65.496,1.0,1.0,1.0
20.32,71.0,1.0,1.0,1.0
20.36,79.504,1.0,1.0,1.0
20.4,77.0,1.0,1.0,1.0
20.44,105.0,1.0,1.0,1.0
20.48,93.504,1.0,1.0,1.0
20.52,88.496,1.0,1.0,1.0
20.56,107.008,1.0,1.0,1.0
20.6,112.496,1.0,1.0,1.0
20.64,98.4881,1.0,1.0,1.0
20.68,123.4801,1.0,1.0,1.0
20.72,145.992,1.0,1.0,1.0
20.76,89.0,1.0,1.0,1.0
20.8,69.504,1.0,1.0,1.0
20.84,69.496,1.0,1.0,1.0
20.88,48.504,1.0,1.0,1.0
20.92,38.0,1.0,1.0,1.0
20.96,50.496,1.0,1.0,1.0
21.0,61.008,1.0,1.0,1.0
21.04,42.008,1.0,1.0,1.0
21.08,37.504,1.0,1.0,1.0
21.12,43.0,1.0,1.0,1.0
21.16,40.0,1.0,1.0,1.0
21.2,64.008,1.0,1.0,1.0
21.24,94.496,1.0,1.0,1.0
21.28,87.008,1.0,1.0,1.0
21.32,121.504,1.0,1.0,1.0
21.36,112.992,1.0,1.0,1.0
21.4,158.504,1.0,1.0,1.0
21.44,220.5199,1.0,1.0,1.0
21.48,312.496,1.0,1.0,1.0
21.52,446.5119,1.0,1.0,1.0
21.56,490.008,1.0,1.0,1.0
21.6,540.0079,1.0,1.0,1.0
21.64,663.0,1.0,1.0,1.0
21.68,840.504,1.0,1.0,1.0
21.72,1090.496,1.0,1.0,1.0
21.76,1317.48,1.0,1.0,1.0
21.8,1641.43,1.0,1.0,1.0
21.84,1735.02,1.0,1.0,1.0
21.88,1683.52,1.0,1.0,1.0
21.92,1310.46,1.0,1.0,1.0
21.96,908.0,1.0,1.0,1.0
22.0,554.9602,1.0,1.0,1.0
22.04,302.5119,1.0,1.0,1.0
22.08,250.992,1.0,1.0,1.0
22.12,266.0319,1.0,1.0,1.0
22.16,314.0,1.0,1.0,1.0
22.2,244.496,1.0,1.0,1.0
22.24,174.992,1.0,1.0,1.0
22.28,135.008,1.0,1.0,1.0
22.32,146.5199,1.0,1.0,1.0
22.36,201.008,1.0,1.0,1.0
22.4,262.992,1.0,1.0,1.0
22.44,371.0239,1.0,1.0,1.0
22.48,395.5199,1.0,1.0,1.0
22.52,481.496,1.0,1.0,1.0
22.56,704.504,1.0,1.0,1.0
22.6,1004.0,1.0,1.0,1.0
22.64,1489.47,1.0,1.0,1.0
22.68,2016.05,1.0,1.0,1.0
22.72,2418.04,1.0,1.0,1.0
22.76,3041.53,1.0,1.0,1.0
22.8,3815.04,1.0,1.0,1.0
22.84,5010.01,1.0,1.0,1.0
22.88,6528.66,1.0,1.0,1.0
22.92,8042.52,1.0,1.0,1.0
22.96,8930.89,1.0,1.0,1.0
23.0,8776.92,1.0,1.0,1.0
23.04,7230.93,1.0,1.0,1.0
23.08,5323.93,1.0,1.0,1.0
23.12,3523.01,1.0,1.0,1.0
23.16,3085.02,1.0,1.0,1.0
23.2,4176.01,1.0,1.0,1.0
23.24,6604.04,1.0,1.0,1.0
23.28,9929.49,1.0,1.0,1.0
23.32,14633.6,1.0,1.0,1.0
23.36,25267.8,1.0,1.0,1.0
23.4,78700.3,1.0,1.0,1.0
23.44,2483149.75,1.0,1.0,1.0
23.48,11045147.0,1.0,1.0,1.0
23.52,2266129.5,1.0,1.0,1.0
23.56,61107.3,1.0,1.0,1.0
23.6,16153.7,1.0,1.0,1.0
23.64,7742.3,1.0,1.0,1.0
23.68,4374.41,1.0,1.0,1.0
23.72,2629.46,1.0,1.0,1.0
23.76,1578.97,1.0,1.0,1.0
23.8,1037.98,1.0,1.0,1.0
23.84,720.488,1.0,1.0,1.0
23.88,551.0079,1.0,1.0,1.0
23.92,379.0159,1.0,1.0,1.0
23.96,233.0,1.0,1.0,1.0
24.0,209.504,1.0,1.0,1.0
24.04,282.5279,1.0,1.0,1.0
24.08,368.0,1.0,1.0,1.0
24.12,422.008,1.0,1.0,1.0
24.16,475.992,1.0,1.0,1.0
24.2,420.5119,1.0,1.0,1.0
24.24,264.504,1.0,1.0,1.0
24.28,217.008,1.0,1.0,1.0
24.32,162.4881,1.0,1.0,1.0
24.36,143.496,1.0,1.0,1.0
24.4,122.496,1.0,1.0,1.0
24.44,114.0159,1.0,1.0,1.0
24.48,111.992,1.0,1.0,1.0
24.52,106.5119,1.0,1.0,1.0
24.56,68.0,1.0,1.0,1.0
24.6,216.0159,1.0,1.0,1.0
24.64,82.008,1.0,1.0,1.0
24.68,79.496,1.0,1.0,1.0
24.72,85.0,1.0,1.0,1.0
24.76,72.0,1.0,1.0,1.0
24.8,111.496,1.0,1.0,1.0
24.84,99.5119,1.0,1.0,1.0
24.88,85.9841,1.0,1.0,1.0
24.92,81.0,1.0,1.0,1.0
24.96,88.992,1.0,1.0,1.0
25.0,75.0,1.0,1.0,1.0
25.04,70.496,1.0,1.0,1.0
25.08,65.504,1.0,1.0,1.0
25.12,46.504,1.0,1.0,1.0
25.16,54.496,1.0,1.0,1.0
25.2,34.0,1.0,1.0,1.0
25.24,30.504,1.0,1.0,1.0
25.28,32.0,1.0,1.0,1.0
25.32,32.504,1.0,1.0,1.0
25.36,45.496,1.0,1.0,1.0
25.4,30.0,1.0,1.0,1.0
25.44,30.504,1.0,1.0,1.0
25.48,27.504,1.0,1.0,1.0
25.52,36.008,1.0,1.0,1.0
25.56,39.496,1.0,1.0,1.0
25.6,25.496,1.0,1.0,1.0
25.64,35.008,1.0,1.0,1.0
25.68,42.0,1.0,1.0,1.0
25.72,40.0,1.0,1.0,1.0
25.76,38.0,1.0,1.0,1.0
25.8,37.0,1.0,1.0,1.0
25.84,24.992,1.0,1.0,1.0
25.88,33.0,1.0,1.0,1.0
25.92,29.0,1.0,1.0,1.0
25.96,28.0,1.0,1.0,1.0
26.0,33.496,1.0,1.0,1.0
26.04,26.504,1.0,1.0,1.0
26.08,9.0,1.0,1.0,1.0
26.12,19.504,1.0,1.0,1.0
26.16,29.992,1.0,1.0,1.0
26.2,26.504,1.0,1.0,1.0
26.24,5.0,1.0,1.0,1.0
26.28,20.496,1.0,1.0,1.0
26.32,27.008,1.0,1.0,1.0
26.36,27.496,1.0,1.0,1.0
26.4,11.0,1.0,1.0,1.0
26.44,12.0,1.0,1.0,1.0
26.48,23.0,1.0,1.0,1.0
26.52,21.0,1.0,1.0,1.0
26.56,30.496,1.0,1.0,1.0
26.6,7.504,1.0,1.0,1.0
26.64,4.0,1.0,1.0,1.0
26.68,18.0,1.0,1.0,1.0
26.72,11.496,1.0,1.0,1.0
26.76,19.0,1.0,1.0,1.0
26.8,14.0,1.0,1.0,1.0
26.84,17.496,1.0,1.0,1.0
26.88,17.504,1.0,1.0,1.0
26.92,5.0,1.0,1.0,1.0
26.96,17.0,1.0,1.0,1.0
27.0,18.0,1.0,1.0,1.0
27.04,20.0,1.0,1.0,1.0
27.08,15.0,1.0,1.0,1.0
27.12,20.504,1.0,1.0,1.0
27.16,30.496,1.0,1.0,1.0
27.2,25.496,1.0,1.0,1.0
27.24,18.0,1.0,1.0,1.0
27.28,12.0,1.0,1.0,1.0
27.32,7.0,1.0,1.0,1.0
27.36,15.008,1.0,1.0,1.0
27.4,15.0,1.0,1.0,1.0
27.44,5.0,1.0,1.0,1.0
27.48,19.0,1.0,1.0,1.0
27.52,8.0,1.0,1.0,1.0
27.56,8.504,1.0,1.0,1.0
27.6,10.0,1.0,1.0,1.0
27.64,5.504,1.0,1.0,1.0
27.68,15.0,1.0,1.0,1.0
27.72,10.0,1.0,1.0,1.0
27.76,10.496,1.0,1.0,1.0
27.8,20.0,1.0,1.0,1.0
27.84,18.0,1.0,1.0,1.0
27.88,20.496,1.0,1.0,1.0
27.92,15.0,1.0,1.0,1.0
27.96,25.0,1.0,1.0,1.0
28.0,12.496,1.0,1.0,1.0

File: 23002_SL(CO)L_001_XRD_2-Theta_Omega.asc
*TYPE		=  Raw
*CLASS		=  ASCII CLASS
*SAMPLE		=
*COMMENT	=
*FNAME		=  23002_SL(CO)L_001_XRD_2-Theta_Omega.asc
*DATE		=  16-Jan-23 16:32

*GROUP_COUNT	=  1
*GONIO		=  SmartLab(In-plane), 0.000000
*ATTACHMENT	=  Z-Phi Stage
*ASC		=  0, 0, 0.000000, 0.000000
*I_MONOCHRO	=  Ge(220)x2, 0.000000
*FILTER		=  None
*C_MONOCHRO	=  None, 0.000000
*SLIT_NAME	=  0, Incident slit
*SLIT_NAME	=  1, Receiving slit # 1
*SLIT_NAME	=  2, Receiving slit # 2
*COUNTER	=  D/teX Ultra 250, 0
*POS_FORMAT	=  0
*SCAN_AXIS	=  2Theta/Omega
*MEAS_MODE	=  Continuous Scanning
*TARGET		=  29
*XRAY_CHAR	=  K-ALPHA1
*WAVE_LENGTH1	=  1.54059
*WAVE_LENGTH2	=  1.54441
*THICKNESS	=  0, 0.000000
*MU		=  0, 0.000000
*SCAN_MODE	=  2Theta/Omega
*SPEED_DIM	=  sec./step
*XUNIT		=  deg.
*YUNIT		=  counts
*SCALE_MODE	=  1
*REP_COUNT	=  0
*SE_COUNT	=  0
*STD_MATERIAL	=  Unknown, Unknown, 0.000000, 0.000000, 0.000000, 0.000000, 0.000000, 0.000000
*LATT_CONS	=  0, Unknown, Unknown, 0.000000, 0.000000, 0.000000, 0.000000, 0.000000, 0.000000
*SEC_COUNT	=  1
*TSPEC_SIZE	=  0
*EXTRA_SIZE	=  0
*MEMO		=

*BEGIN
*GROUP		=  0
*START		=  18
*STOP		=  28
*STEP		=  0.01
*OFFSET		=  0.168
*SPEED		=  23.9588
*SLIT_SPEC	=  0, 0.400mm, 0.4, 0.000000
*SLIT_SPEC	=  1, 0.400mm, 0.4, 0.000000
*SLIT_SPEC	=  2, 0.400mm, 0.4, 0.000000
*KV		=  40
*MA		=  30
*LOW		=  0.000000
*HIGH		=  0.000000
*CTEMPER	=  0, 0.000000
*CTEMPER	=  1, 0.000000
*CTEMPER	=  2, 0.000000
*PAREX		=  0, 0.000000
*PAREX		=  1, 0.000000
*PAREX		=  2, 0.000000
*PAREX		=  3, 0.000000
*PAREX		=  4, 0.000000
*PAREX		=  5, 0.000000
*PAREX		=  6, 0.000000
*PAREX		=  7, 0.000000
*PAREX		=  8, 0.000000
*PAREX		=  9, 0.000000
*PAREX		=  10, 0.000000
*PAREX		=  11, 0.000000
*PAREX		=  12, 0.000000
*PAREX		=  13, 0.000000
*PAREX		=  14, 0.000000
*PAREX		=  15, 0.000000
*FULL_SCALE	=  620385
*INDEX		=  0, 0, 0
*COUNT		=  1001
23, 55, 29.504, 52
58.496, 35, 34, 32.496
34.008, 28, 30.496, 45
31, 42.496, 39.5199, 38.4801
42, 29.504, 42.496, 34
36.008, 38.992, 25.008, 29.496
40.496, 38.504, 35.496, 29
25, 40, 27, 46
42.504, 34.008, 31.4881, 39
36, 36, 31, 48.504
38, 48, 26.504, 41.496
38.496, 51, 41, 24.008
31.496, 40.496, 41.504, 42
46, 39.008, 46.496, 36
51, 39, 32, 31.496
30, 36, 30.496, 32
39.504, 28.504, 34.496, 37
105, 23, 40.504, 30.992
22, 23, 25, 28
39.008, 34.992, 25, 33
32.504, 37, 37.496, 28
25.504, 45.504, 46.496, 17.504
25.992, 32.504, 36.496, 31.504
31, 22.504, 35.496, 29.496
26, 32, 32, 29
25.008, 38, 23.496, 39
29.496, 31.504, 31, 31
31.496, 29.504, 44.496, 19.504
28.496, 19, 23, 27
23, 33.5119, 24.992, 26.496
35, 32.504, 32.496, 39
33, 30, 35, 37.504
40, 33.496, 54, 23.504
36.496, 25.504, 56.504, 45.496
42, 55, 44, 25.496
52.504, 36.496, 47.008, 33.504
38.992, 54.496, 42.504, 68.496
56.008, 50.504, 81.496, 57.496
59, 81, 92, 71.496
93.008, 88.992, 97.008, 71.496
78, 86, 81.496, 99.5199
105.992, 82.992, 89.0159, 77.4801
88, 113.512, 83, 66.4881
78, 82.008, 64.992, 59
53.0159, 56.9841, 50, 39
42, 46, 35, 37
51.008, 43.496, 32, 47.496
47.504, 49.496, 27, 59
21, 50.504, 52.496, 61.008
46.992, 55.008, 69.504, 62.496
54.992, 46, 55.008, 45.496
60.496, 39, 59, 33
74.0159, 55.4881, 51.496, 30.504
29.496, 58, 58.008, 41.496
37.504, 49.992, 68, 61.008
63.008, 65.992, 74, 63.008
45.9841, 63, 59.008, 73.496
65.496, 61.504, 64, 63.496
71, 58.504, 70.496, 57.008
79.504, 89.992, 54.008, 63.4881
77, 106.008, 99.496, 83.504
105, 80.992, 77.008, 93.496
93.504, 82.496, 84.496, 106.008
88.496, 104.008, 108, 82
107.008, 117.496, 107, 92.496
112.496, 96.496, 134.008, 96.008
98.4881, 95.008, 116.488, 122.52
123.48, 136.504, 125.504, 123
145.992, 98.504, 120.992, 99.504
89, 101, 105.008, 101.488
69.504, 95.504, 89.504, 62.992
69.496, 72.504, 51.496, 51.504
48.504, 43.496, 58.504, 67.496
38, 39.496, 35, 68.504
50.496, 50.504, 35.008, 52.4881
61.008, 46.496, 64.008, 35.4881
42.008, 55.496, 57.496, 56
37.504, 47, 51.504, 40.496
43, 69.5119, 31.4881, 53
40, 55.504, 51.496, 42.496
64.008, 72.504, 79, 62.992
94.496, 77.504, 94.496, 120.504
87.008, 123.992, 117.504, 123.008
121.504, 129.488, 154.496, 134.504
112.992, 162.016, 146.496, 144
158.504, 176.992, 194.504, 178.992
220.52, 238, 251.992, 269
312.496, 363.008, 374.504, 384.504
446.512, 437.992, 480, 523.496
490.008, 497.992, 576.032, 579.472
540.008, 610.008, 632, 618
663, 707.008, 721.984, 707.008
840.504, 807, 842.512, 942.024
1090.5, 1076.51, 1128.03, 1273
1317.48, 1462, 1490.02, 1477.54
1641.43, 1644.04, 1673, 1695.98
1735.02, 1748.48, 1754.03, 1710.97
1683.52, 1580.51, 1591.51, 1464.98
1310.46, 1253.02, 1125.96, 1018.5
908, 839.992, 667.008, 661.032
554.96, 455.968, 391.992, 316
302.512, 288.48, 254, 236.52
250.992, 232.496, 257.992, 235.992
266.032, 290.008, 259.984, 324.496
314, 301.504, 278.504, 285.488
244.496, 219.504, 250, 205.496
174.992, 173.496, 175.504, 154.504
135.008, 127.984, 96, 103
146.52, 127.976, 133, 166.512
201.008, 173.008, 248.504, 251.488
262.992, 291.504, 292, 339.504
371.024, 386.48, 370.496, 395
395.52, 437.504, 445.512, 441.496
481.496, 512.984, 592.016, 603.496
704.504, 735.048, 812.976, 996.504
1004, 1141.52, 1209.01, 1351.02
1489.47, 1578.02, 1710.06, 1903.45
2016.05, 2071.03, 2248.48, 2291
2418.04, 2571.99, 2723.57, 2929.94
3041.53, 3170.99, 3340.55, 3556.49
3815.04, 4134.5, 4276.03, 4648.04
5010.01, 5422.07, 5801.03, 6207.46
6528.66, 7057.97, 7436.61, 7813.48
8042.52, 8385.47, 8689.58, 8773
8930.89, 9191.57, 9170.08, 9005.95
8776.92, 8534.51, 8458.01, 7983.45
7230.93, 7030.5, 6453.43, 5977.5
5323.93, 4840.46, 4437.44, 4131.03
3523.01, 3360.89, 3148.54, 3103.97
3085.02, 3277.97, 3315.08, 3749.98
4176.01, 4625.07, 5134.09, 5701.06
6604.04, 7301.55, 8172.57, 8909.11
9929.49, 10821.6, 11602.6, 13014
14633.6, 16017.8, 18214.1, 21256.9
25267.8, 30364.6, 38283.2, 51346
78700.3, 197164, 680708, 1516170.6
2483149.8, 4038093.8, 6184203, 8516338
11045147, 9245890, 4803685, 3518324
2266129.5, 849283, 223382, 101448
61107.3, 40210.6, 27973.9, 20857.1
16153.7, 12878.9, 10743.6, 9042.92
7742.3, 6717.51, 5764.46, 4996.98
4374.41, 3905.92, 3434.95, 2962.98
2629.46, 2352.04, 2047.98, 1742.48
1578.97, 1398.98, 1252.46, 1119.02
1037.98, 953.528, 830.472, 795.504
720.488, 702.48, 667.008, 595.016
551.008, 489.472, 445.504, 453.976
379.016, 391.512, 335.96, 290.504
233, 196.52, 242.48, 218
209.504, 204.504, 215.992, 212.992
282.528, 254.984, 301.496, 297.52
368, 413, 404.016, 430.48
422.008, 431.032, 434.984, 454.992
475.992, 459.48, 449.528, 431.48
420.512, 384.48, 369.504, 353.512
264.504, 324.496, 248.984, 253.504
217.008, 228.992, 192.992, 192.016
162.488, 166, 136.984, 122.016
143.496, 146.488, 131.512, 107
122.496, 126.992, 122.008, 101.496
114.016, 127.488, 112.992, 110.512
111.992, 88.5119, 121, 100
106.512, 94.9761, 100.496, 90.504
68, 104, 107.512, 88.9841
216.016, 89.9841, 79.504, 60.504
82.008, 85.9841, 80, 93.504
79.496, 89.5119, 79.992, 92
85, 93.504, 101.496, 105.504
72, 82, 106, 103.504
111.496, 80.496, 121.008, 112.488
99.5119, 102.992, 103.496, 83.0159
85.9841, 87.008, 82, 84.496
81, 86.008, 67, 93.496
88.992, 46, 71.008, 92
75, 65, 76, 55
70.496, 71.496, 67, 49.5119
65.504, 54.9841, 42.504, 63.496
46.504, 38.496, 31.504, 23
54.496, 29.504, 40.496, 35
34, 34, 22.008, 25.496
30.504, 35.992, 30, 27
32, 46, 32, 20
32.504, 35.496, 26.504, 12
45.496, 37, 37.008, 32.992
30, 78.504, 39.496, 22
30.504, 47.008, 47.992, 66.496
27.504, 22.496, 33, 38
36.008, 37.496, 24, 39
39.496, 40.504, 27, 32
25.496, 56, 32.504, 26.496
35.008, 33.992, 27, 17.504
42, 30.504, 23.992, 25
40, 22, 35, 36
38, 37.504, 30.496, 31
37, 30, 39, 33.008
24.992, 43, 29, 23
33, 35, 41, 21
29, 33.008, 28.992, 33
28, 37, 22.504, 36
33.496, 22, 30.008, 40.992
26.504, 18.496, 33, 24
9, 38, 14, 25
19.504, 34.496, 23, 34.008
29.992, 24, 21, 16
26.504, 30, 18, 24.496
5, 27, 11, 26.504
20.496, 26.504, 18.504, 29.992
27.008, 30.992, 16, 18.504
27.496, 36, 33, 10
11, 19.504, 18.496, 21
12, 15.504, 12, 19.496
23, 23, 28, 27
21, 15, 11, 19.504
30.496, 24.008, 24.496, 12.496
7.50398, 22.496, 11, 22
4, 9, 7, 12
18, 22, 3, 13.504
11.496, 13, 3, 7
19, 7, 4.50398, 15.496
14, 5, 6.50398, 17
17.496, 19.504, 7.49602, 16
17.504, 4.49602, 9, 0.000000
5, 13, 13, 16
17, 21, 9, 13
18, 20, 18, 12
20, 15, 8.50398, 14.496
15, 14.504, 4.49602, 15
20.504, 19.496, 21, 13.504
30.496, 19, 24, 9.50398
25.496, 16, 16, 13.504
18, 16, 10.496, 18
12, 18, 11, 5
7, 18, 19, 7
15.008, 15.992, 4, 7.50398
15, 41, 10.496, 9
5, 21, 14, 15
19, 7, 20, 9
8, 9, 15, 14
8.50398, 7.49602, 8, 21
10, 10, 10, 12
5.50398, 14, 16, 17.496
15, 13, 17, 4
10, 15, 5, 16.504
10.496, 21, 0.000000, 12
20, 13, 12.504, 8.49602
18, 14, 5, 7.50398
20.496, 15.504, 7.49602, 11
15, 13, 10, 12
25, 15, 14, 18.504
12.496
*END

*EOF

File: 23002_SL(CO)L_002_XRD.csv
#twotheta, yobs, ycal, bkg, diff
42.0,8.0,1.0,1.0,1.0
42.04,18.0,1.0,1.0,1.0
42.08,11.0,1.0,1.0,1.0
42.12,5.0,1.0,1.0,1.0
42.16,15.0,1.0,1.0,1.0
42.2,8.5056,1.0,1.0,1.0
42.24,2.4944,1.0,1.0,1.0
42.28,12.0,1.0,1.0,1.0
42.32,10.0,1.0,1.0,1.0
42.36,6.0,1.0,1.0,1.0
42.4,10.0,1.0,1.0,1.0
42.44,9.0,1.0,1.0,1.0
42.48,11.0,1.0,1.0,1.0
42.52,13.0,1.0,1.0,1.0
42.56,5.4944,1.0,1.0,1.0
42.6,2.0,1.0,1.0,1.0
42.64,5.0,1.0,1.0,1.0
42.68,19.0,1.0,1.0,1.0
42.72,19.0,1.0,1.0,1.0
42.76,11.0,1.0,1.0,1.0
42.8,13.4944,1.0,1.0,1.0
42.84,0.4944,1.0,1.0,1.0
42.88,17.0,1.0,1.0,1.0
42.92,11.0,1.0,1.0,1.0
42.96,15.0,1.0,1.0,1.0
43.0,9.5056,1.0,1.0,1.0
43.04,11.0,1.0,1.0,1.0
43.08,9.0,1.0,1.0,1.0
43.12,12.4944,1.0,1.0,1.0
43.16,8.0111,1.0,1.0,1.0
43.2,5.9889,1.0,1.0,1.0
43.24,7.0,1.0,1.0,1.0
43.28,10.0,1.0,1.0,1.0
43.32,22.0,1.0,1.0,1.0
43.36,17.5056,1.0,1.0,1.0
43.4,23.5056,1.0,1.0,1.0
43.44,14.0,1.0,1.0,1.0
43.48,22.4944,1.0,1.0,1.0
43.52,12.0,1.0,1.0,1.0
43.56,28.0,1.0,1.0,1.0
43.6,36.0,1.0,1.0,1.0
43.64,24.0,1.0,1.0,1.0
43.68,35.0,1.0,1.0,1.0
43.72,36.4944,1.0,1.0,1.0
43.76,55.0,1.0,1.0,1.0
43.8,62.0,1.0,1.0,1.0
43.84,78.5056,1.0,1.0,1.0
43.88,71.5167,1.0,1.0,1.0
43.92,59.5056,1.0,1.0,1.0
43.96,95.4944,1.0,1.0,1.0
44.0,86.0,1.0,1.0,1.0
44.04,128.4944,1.0,1.0,1.0
44.08,111.4944,1.0,1.0,1.0
44.12,111.0,1.0,1.0,1.0
44.16,110.4722,1.0,1.0,1.0
44.2,137.0111,1.0,1.0,1.0
44.24,162.9889,1.0,1.0,1.0
44.28,123.5056,1.0,1.0,1.0
44.32,104.0111,1.0,1.0,1.0
44.36,89.0111,1.0,1.0,1.0
44.4,77.0111,1.0,1.0,1.0
44.44,55.5056,1.0,1.0,1.0
44.48,67.5056,1.0,1.0,1.0
44.52,56.5056,1.0,1.0,1.0
44.56,67.0111,1.0,1.0,1.0
44.6,61.0,1.0,1.0,1.0
44.64,71.0,1.0,1.0,1.0
44.68,107.5167,1.0,1.0,1.0
44.72,122.0111,1.0,1.0,1.0
44.76,139.5167,1.0,1.0,1.0
44.8,158.5056,1.0,1.0,1.0
44.84,217.0111,1.0,1.0,1.0
44.88,266.4833,1.0,1.0,1.0
44.92,298.0,1.0,1.0,1.0
44.96,336.9889,1.0,1.0,1.0
45.0,423.4722,1.0,1.0,1.0
45.04,424.4722,1.0,1.0,1.0
45.08,596.5056,1.0,1.0,1.0
45.12,700.5167,1.0,1.0,1.0
45.16,753.9556,1.0,1.0,1.0
45.2,847.5056,1.0,1.0,1.0
45.24,914.4833,1.0,1.0,1.0
45.28,936.5389,1.0,1.0,1.0
45.32,915.4389,1.0,1.0,1.0
45.36,943.5167,1.0,1.0,1.0
45.4,923.9667,1.0,1.0,1.0
45.44,894.5056,1.0,1.0,1.0
45.48,756.4722,1.0,1.0,1.0
45.52,687.5167,1.0,1.0,1.0
45.56,605.5056,1.0,1.0,1.0
45.6,471.9667,1.0,1.0,1.0
45.64,435.5389,1.0,1.0,1.0
45.68,438.0,1.0,1.0,1.0
45.72,406.5167,1.0,1.0,1.0
45.76,535.0555,1.0,1.0,1.0
45.8,590.4833,1.0,1.0,1.0
45.84,674.4389,1.0,1.0,1.0
45.88,765.5056,1.0,1.0,1.0
45.92,948.9667,1.0,1.0,1.0
45.96,1087.47,1.0,1.0,1.0
46.0,1123.94,1.0,1.0,1.0
46.04,1216.44,1.0,1.0,1.0
46.08,1262.96,1.0,1.0,1.0
46.12,1429.96,1.0,1.0,1.0
46.16,1687.41,1.0,1.0,1.0
46.2,2021.92,1.0,1.0,1.0
46.24,2394.39,1.0,1.0,1.0
46.28,2746.99,1.0,1.0,1.0
46.32,3319.39,1.0,1.0,1.0
46.36,3911.93,1.0,1.0,1.0
46.4,4369.561,1.0,1.0,1.0
46.44,4730.561,1.0,1.0,1.0
46.48,5099.45,1.0,1.0,1.0
46.52,5225.07,1.0,1.0,1.0
46.56,5392.49,1.0,1.0,1.0
46.6,5451.59,1.0,1.0,1.0
46.64,5159.58,1.0,1.0,1.0
46.68,5015.04,1.0,1.0,1.0
46.72,4669.52,1.0,1.0,1.0
46.76,4018.01,1.0,1.0,1.0
46.8,3599.42,1.0,1.0,1.0
46.84,3271.0,1.0,1.0,1.0
46.88,3079.04,1.0,1.0,1.0
46.92,2903.98,1.0,1.0,1.0
46.96,2696.49,1.0,1.0,1.0
47.0,2857.59,1.0,1.0,1.0
47.04,2890.93,1.0,1.0,1.0
47.08,2887.06,1.0,1.0,1.0
47.12,3093.02,1.0,1.0,1.0
47.16,3059.92,1.0,1.0,1.0
47.2,3174.48,1.0,1.0,1.0
47.24,2974.46,1.0,1.0,1.0
47.28,2691.03,1.0,1.0,1.0
47.32,2331.14,1.0,1.0,1.0
47.36,1975.47,1.0,1.0,1.0
47.4,1580.59,1.0,1.0,1.0
47.44,1386.48,1.0,1.0,1.0
47.48,1165.97,1.0,1.0,1.0
47.52,1091.98,1.0,1.0,1.0
47.56,984.0,1.0,1.0,1.0
47.6,904.0222,1.0,1.0,1.0
47.64,871.0111,1.0,1.0,1.0
47.68,929.4722,1.0,1.0,1.0
47.72,1121.49,1.0,1.0,1.0
47.76,1723.44,1.0,1.0,1.0
47.8,2881.51,1.0,1.0,1.0
47.84,5739.34,1.0,1.0,1.0
47.88,13248.6,1.0,1.0,1.0
47.92,34397.8,1.0,1.0,1.0
47.96,87821.1,1.0,1.0,1.0
48.0,226447,1.0,1.0,1.0
48.04,4071262.75,1.0,1.0,1.0
48.08,542295,1.0,1.0,1.0
48.12,16946.9,1.0,1.0,1.0
48.16,5587.16,1.0,1.0,1.0
48.2,2796.03,1.0,1.0,1.0
48.24,1914.52,1.0,1.0,1.0
48.28,1487.97,1.0,1.0,1.0
48.32,1161.01,1.0,1.0,1.0
48.36,959.9445,1.0,1.0,1.0
48.4,848.5389,1.0,1.0,1.0
48.44,636.45,1.0,1.0,1.0
48.48,529.9889,1.0,1.0,1.0
48.52,386.0111,1.0,1.0,1.0
48.56,272.0,1.0,1.0,1.0
48.6,275.5056,1.0,1.0,1.0
48.64,191.9556,1.0,1.0,1.0
48.68,181.0,1.0,1.0,1.0
48.72,126.5056,1.0,1.0,1.0
48.76,113.5056,1.0,1.0,1.0
48.8,92.4944,1.0,1.0,1.0
48.84,91.5056,1.0,1.0,1.0
48.88,67.5056,1.0,1.0,1.0
48.92,99.0,1.0,1.0,1.0
48.96,72.5056,1.0,1.0,1.0
49.0,71.9889,1.0,1.0,1.0
49.04,60.5167,1.0,1.0,1.0
49.08,58.0222,1.0,1.0,1.0
49.12,60.0111,1.0,1.0,1.0
49.16,45.9889,1.0,1.0,1.0
49.2,67.9889,1.0,1.0,1.0
49.24,42.4944,1.0,1.0,1.0
49.28,32.0,1.0,1.0,1.0
49.32,35.9889,1.0,1.0,1.0
49.36,51.0,1.0,1.0,1.0
49.4,45.0,1.0,1.0,1.0
49.44,41.5056,1.0,1.0,1.0
49.48,34.4944,1.0,1.0,1.0
49.52,48.4944,1.0,1.0,1.0
49.56,27.0,1.0,1.0,1.0
49.6,12.0,1.0,1.0,1.0
49.64,18.0,1.0,1.0,1.0
49.68,34.0,1.0,1.0,1.0
49.72,25.0,1.0,1.0,1.0
49.76,16.4944,1.0,1.0,1.0
49.8,4.9889,1.0,1.0,1.0
49.84,27.4944,1.0,1.0,1.0
49.88,25.0,1.0,1.0,1.0
49.92,22.5056,1.0,1.0,1.0
49.96,14.4833,1.0,1.0,1.0
50.0,14.5056,1.0,1.0,1.0
50.04,15.9889,1.0,1.0,1.0
50.08,31.0,1.0,1.0,1.0
50.12,17.5056,1.0,1.0,1.0
50.16,19.5056,1.0,1.0,1.0
50.2,11.0,1.0,1.0,1.0
50.24,9.0,1.0,1.0,1.0
50.28,2.0,1.0,1.0,1.0
50.32,16.0,1.0,1.0,1.0
50.36,15.0,1.0,1.0,1.0
50.4,7.4944,1.0,1.0,1.0
50.44,10.0,1.0,1.0,1.0
50.48,22.4944,1.0,1.0,1.0
50.52,10.0,1.0,1.0,1.0
50.56,13.0,1.0,1.0,1.0
50.6,6.0,1.0,1.0,1.0
50.64,9.0,1.0,1.0,1.0
50.68,12.0,1.0,1.0,1.0
50.72,6.0,1.0,1.0,1.0
50.76,12.4944,1.0,1.0,1.0
50.8,7.0,1.0,1.0,1.0
50.84,8.0,1.0,1.0,1.0
50.88,18.0,1.0,1.0,1.0
50.92,7.0,1.0,1.0,1.0
50.96,4.0,1.0,1.0,1.0
51.0,9.0,1.0,1.0,1.0
51.04,12.0,1.0,1.0,1.0
51.08,4.0,1.0,1.0,1.0
51.12,14.0,1.0,1.0,1.0
51.16,5.0,1.0,1.0,1.0
51.2,0.0,1.0,1.0,1.0
51.24,8.4944,1.0,1.0,1.0
51.28,10.0,1.0,1.0,1.0
51.32,11.0,1.0,1.0,1.0
51.36,10.0,1.0,1.0,1.0
51.4,12.4944,1.0,1.0,1.0
51.44,12.0,1.0,1.0,1.0
51.48,9.0,1.0,1.0,1.0
51.52,4.4944,1.0,1.0,1.0
51.56,3.0,1.0,1.0,1.0
51.6,8.0,1.0,1.0,1.0
51.64,13.0,1.0,1.0,1.0
51.68,8.0,1.0,1.0,1.0
51.72,7.5056,1.0,1.0,1.0
51.76,4.0,1.0,1.0,1.0
51.8,5.9889,1.0,1.0,1.0
51.84,19.5056,1.0,1.0,1.0
51.88,7.0,1.0,1.0,1.0
51.92,9.0,1.0,1.0,1.0
51.96,18.0111,1.0,1.0,1.0
52.0,12.0,1.0,1.0,1.0