Folder: Analysis/XRD:XRR/LCO/22128_LCOL

File: 22128_LCOL_XRD_200_2-Theta_Omega.asc
*TYPE		=  Raw
*CLASS		=  ASCII CLASS
*SAMPLE		=
*COMMENT	=
*FNAME		=  22128_LCOL_XRD_200_2-Theta_Omega.asc
*DATE		=  25-Aug-22 23:58

*GROUP_COUNT	=  1
*GONIO		=  SmartLab(In-plane), 0.000000
*ATTACHMENT	=  Z-Phi Stage
*ASC		=  0, 0, 0.000000, 0.000000
*I_MONOCHRO	=  Ge(220)x2, 0.000000
*FILTER		=  None
*C_MONOCHRO	=  None, 0.000000
*SLIT_NAME	=  0, Incident slit
*SLIT_NAME	=  1, Receiving slit # 1
*SLIT_NAME	=  2, Receiving slit # 2
*COUNTER	=  D/teX Ultra 250, 0
*POS_FORMAT	=  0
*SCAN_AXIS	=  2Theta/Omega
*MEAS_MODE	=  Continuous Scanning
*TARGET		=  29
*XRAY_CHAR	=  K-ALPHA1
*WAVE_LENGTH1	=  1.54059
*WAVE_LENGTH2	=  1.54441
*THICKNESS	=  0, 0.000000
*MU		=  0, 0.000000
*SCAN_MODE	=  2Theta/Omega
*SPEED_DIM	=  sec./step
*XUNIT		=  deg.
*YUNIT		=  counts
*SCALE_MODE	=  1
*REP_COUNT	=  0
*SE_COUNT	=  0
*STD_MATERIAL	=  Unknown, Unknown, 0.000000, 0.000000, 0.000000, 0.000000, 0.000000, 0.000000
*LATT_CONS	=  0, Unknown, Unknown, 0.000000, 0.000000, 0.000000, 0.000000, 0.000000, 0.000000
*SEC_COUNT	=  1
*TSPEC_SIZE	=  0
*EXTRA_SIZE	=  0
*MEMO		=

*BEGIN
*GROUP		=  0
*START		=  42
*STOP		=  52
*STEP		=  0.01
*OFFSET		=  0.0855
*SPEED		=  23.9588
*SLIT_SPEC	=  0, 0.400mm, 0.4, 0.000000
*SLIT_SPEC	=  1, 0.400mm, 0.4, 0.000000
*SLIT_SPEC	=  2, 0.400mm, 0.4, 0.000000
*KV		=  40
*MA		=  30
*LOW		=  0.000000
*HIGH		=  0.000000
*CTEMPER	=  0, 0.000000
*CTEMPER	=  1, 0.000000
*CTEMPER	=  2, 0.000000
*PAREX		=  0, 0.000000
*PAREX		=  1, 0.000000
*PAREX		=  2, 0.000000
*PAREX		=  3, 0.000000
*PAREX		=  4, 0.000000
*PAREX		=  5, 0.000000
*PAREX		=  6, 0.000000
*PAREX		=  7, 0.000000
*PAREX		=  8, 0.000000
*PAREX		=  9, 0.000000
*PAREX		=  10, 0.000000
*PAREX		=  11, 0.000000
*PAREX		=  12, 0.000000
*PAREX		=  13, 0.000000
*PAREX		=  14, 0.000000
*PAREX		=  15, 0.000000
*FULL_SCALE	=  524690
*INDEX		=  0, 0, 0
*COUNT		=  1001
6.50555, 10.4944, 5.50555, 9
1.49445, 15.5056, 11, 13
14, 13, 27, 7
5, 16, 11, 6
15, 7, 11, 19
14, 13, 15, 9
9, 6, 30, 15
7, 4, 14, 8.48334
17.5167, 13, 14, 12
9.49445, 15.5056, 8, 7
27.4944, 8.50555, 8, 0.000000
9, 8, 10, 19
13, 2, 6, 2.49445
13.5056, 4, 4, 8
5, 8, 0.000000, 5.49445
3.50555, 12, 11.4944, 63
12.5056, 3, 11, 17.4944
10.5056, 7, 8.49445, 15
15.5056, 11.4944, 8.50555, 20
13, 20.4944, 23, 19.5056
14.9889, 20.0111, 9, 17
2, 16.4944, 11.5056, 11
7, 15, 13, 17
12, 14, 9, 23
11, 9.49445, 21.5056, 9
14.4944, 13, 19.5056, 0.000000
3, 13.4944, 21.5056, 8
2.49445, 14.5056, 16, 16
14, 11.9889, 19.0111, 12
8, 11, 7, 6
8.49445, 17.5056, 8.49445, 18.5056
11, 8, 7.49445, 7.50555
11, 3, 19, 12
7.49445, 6.50555, 13, 12
11, 10, 10, 7
19.9889, 27.0111, 23, 24
10.4944, 13, 21.5056, 6.98889
32.0111, 22, 27.4944, 26.5056
17.4944, 31.5056, 18, 21.4944
37.4944, 14.5056, 11, 23.5056
42, 25, 30, 21
20, 27.9889, 16.5056, 26
15.5056, 8, 34, 19
16, 10, 11.4944, 17
20, 8.50555, 7, 7
13.4944, 9, 16.5056, 4
14, 9, 15, 14
10.4944, 11.5056, 7, 5
5, 8.49445, 10, 17.5056
5, 23, 23.4833, 13.5167
13, 6, 23.4944, 15.5056
27, 25, 20.4944, 29
30.5056, 19, 45, 32
33, 33.4944, 30.5056, 38.4833
29.5056, 47, 32.0111, 26.9889
56.0111, 59, 59.4944, 60.4944
71.0111, 36, 53.4944, 71
49.5056, 51.9889, 60.0111, 38.9889
67.0111, 51, 40.4944, 36
40.5056, 37.9889, 47.5056, 41.4944
36.5056, 29.5056, 24, 27
23, 34.4944, 17.5056, 19
29, 29.9889, 20.0111, 19
20, 11.4944, 18, 24.5056
4.49445, 24.4944, 15.5056, 16.5056
11, 26.4944, 27, 21.5056
17.9889, 33.0111, 31, 20
22.9889, 42, 41.4944, 63.5056
76.0111, 70.4944, 61, 72.5056
58.9889, 78, 84.5056, 111.494
102.506, 109.989, 125.506, 148.494
124.011, 140, 128, 149.483
151.494, 155, 165.506, 146.494
185.494, 176.022, 174.483, 187.011
138.494, 150.011, 186.483, 188.506
165.011, 175.978, 128.506, 167.528
151, 111.989, 123.483, 129.022
106.989, 129, 120.011, 111.506
89.9889, 70.0111, 86, 79.4944
59.5056, 60.4944, 79, 43.5056
76, 40, 39, 53
41, 33.4944, 36, 56.5056
64.9889, 53.4944, 76.5056, 83
99.4833, 130.011, 161, 162
219.989, 243.494, 272.978, 332.022
390, 415.483, 459.011, 476.978
544.978, 655.011, 705.517, 743.461
877, 935.978, 1010.04, 1117.44
1248, 1220.51, 1293.46, 1501.53
1549.96, 1649.47, 1745.52, 2003.46
2013.51, 2158.93, 2333.01, 2386.47
2532.08, 2584.91, 2751.53, 2893.49
2963.99, 3107.51, 3283.96, 3281
3480.46, 3615.94, 3803.54, 3813.01
4006.41, 4045.09, 4145.41, 4314.54
4365.98, 4537.48, 4598.96, 4607.54
4676.98, 4905.47, 4921.99, 4946.48
5122.89, 5134.76, 5118.36, 5211.53
5198.36, 5199.63, 5348, 5379.79
5395.19, 5388.55, 5238.56, 5313.88
5395.49, 5301.92, 5295.57, 5196.03
5104.93, 4941.49, 5141.09, 5048.02
4974.93, 4954.59, 4884.51, 4572.01
4671.09, 4409.94, 4369.42, 4417.61
4284.38, 4175.06, 3986.03, 3877.96
3801.62, 3622.96, 3446.54, 3412.96
3218.59, 3135.48, 2989.52, 2784.58
2761, 2634.93, 2476.48, 2311.62
2244.42, 2128.62, 2019.47, 1859.99
1794.06, 1587.44, 1517.56, 1473.46
1373.11, 1231.9, 1101.49, 1060.06
944.517, 852.067, 797.472, 727.528
636.494, 571.483, 547.033, 478.011
454.472, 340.517, 374.011, 311.033
242.494, 231.483, 230.989, 206.011
193.978, 190.517, 157.517, 189.989
165.011, 165.494, 155.517, 178.989
210, 196.483, 243.494, 198.989
254.033, 258.494, 264.989, 291.483
268.494, 310.528, 322.506, 369.011
354.483, 401.483, 431.989, 405.022
456.506, 454.944, 464.517, 447
485.506, 459.022, 501.506, 509.483
518.483, 524.506, 538.506, 530.033
556.978, 540.989, 509.494, 553.022
518.967, 486.022, 513, 503.022
485.483, 449.45, 471.067, 486.472
429.517, 440.978, 387.033, 402.483
405.506, 373.506, 384.978, 336.528
335.506, 317.989, 325.011, 323
311.517, 269.978, 286.494, 239.494
274.517, 261.011, 237.989, 241
267.494, 266.989, 264.011, 242
248.483, 293.011, 287.506, 295.483
318.528, 302.472, 327.506, 361.022
325.989, 380.483, 378.506, 389.494
456.978, 503.506, 500.011, 501.472
581.539, 574.472, 714.022, 653.494
649.978, 713.978, 730.011, 795.044
832.933, 842.483, 909.022, 982.472
1006.54, 995.461, 1026.47, 1146.52
1157.54, 1214.45, 1253.53, 1359.49
1420.97, 1468.55, 1603.39, 1652.04
1712.07, 1899.91, 1928.47, 2143.92
2301.53, 2569.55, 2512.38, 2987.02
3095.38, 3444.07, 4053.86, 4421.43
5276.46, 6296.88, 7341.9, 9061.66
11950.7, 16948.1, 29188.4, 72401.4
272337, 836618, 1346224.8, 1204957
1397264.3, 2371513.8, 6146567, 8574780
1952360.3, 318585, 132982, 79132.8
53500, 36405.5, 25121.4, 17539.9
12736.6, 9959.63, 7743.66, 6088.68
4797.22, 3865.02, 3322.04, 2734.58
2362.03, 2124.55, 1849.52, 1672.45
1422.57, 1335.07, 1121.46, 1058.02
947.033, 845.494, 762.506, 730.528
599.506, 588.956, 556.044, 496.506
441.517, 402.506, 338.989, 365.494
319.472, 346.022, 260.539, 263.989
266.494, 250.506, 261.483, 230.517
218.011, 209.989, 191, 189.494
198.022, 197.989, 185.483, 184.506
168.011, 161, 149.506, 159.989
170.517, 140.483, 140, 153.494
129, 139.506, 158.011, 123.483
119.506, 130.506, 116.011, 116.989
124.506, 105, 136.483, 112.506
111.517, 101.978, 105, 85.5167
92.9778, 103.506, 78.5167, 59.5056
78, 51.9889, 64, 69.5056
67.5056, 49.4944, 61, 39.9778
51.5167, 44.0111, 48.9889, 44.5056
54.5056, 45.4944, 47, 23
34.5056, 30, 14, 23
44.4944, 24, 31, 30.4944
25.0111, 27, 19, 30.4944
32.5056, 31.4944, 62, 22.5056
19, 22.4944, 18.5056, 24.4944
23, 22.5056, 16, 34
22, 14, 29.4944, 19.5056
11, 27, 25.4944, 30.5056
20.4944, 23.5056, 31.4944, 21.5056
33.4944, 22.5056, 16, 41.4944
29.5056, 19.4944, 31, 25.5056
20, 34, 31, 40
11, 17.4944, 9, 12.5056
22, 9, 18.4944, 29
14.5056, 21, 15, 19
12, 15, 20, 12.4944
19, 15.5056, 16, 15
25, 10, 14, 3
11, 12, 8.98889, 10.0111
15, 8.49445, 13.5056, 9
3.49445, 6.50555, 6, 19
7, 7, 14, 12
7, 9, 12, 3
24, 16, 13, 19
2, 4, 12, 13.4944
17.5056, 17, 14.4944, 15.5056
4, 17, 17, 7
13, 10, 14, 18
16, 20, 7.49445, 12
3.50555, 14, 12, 2
2.49445, 10, 12.5056, 4
19, 8, 8, 14
5, 6, 9, 2
9, 4, 2.49445, 9
9, 4.50555, 5, 12
8, 9, 2, 3
2, 10, 5, 4
12, 0.000000, 3, 7
4, 8, 6, 4
12, 14, 3, 5
9, 5, 7, 10
12, 13, 4, 12
3, 5, 10, 5
4, 4, 4, 7
15, 0.000000, 2, 2
7, 15, 18, 7
5, 16, 13.9889, 13.5056
7.50555, 11, 3, 14
10, 10.4944, 12.5056, 4
4, 12, 20, 8
3, 4, 2, 7.49445
2.50555, 8, 4.49445, 5.50555
10, 0.000000, 3, 8.49445
3.50555, 28, 3.49445, 8.50555
5, 9, 2, 14.9889
8, 8.01111, 11, 11
11, 9.49445, 11.5056, 11
8, 7, 7, 9
3, 5, 11, 11
4.49445, 14.5056, 11, 8
7.98889, 8.50555, 0.505554, 2
10.4944, 4.50555, 11, 9
7, 7, 6, 3.49445
8.50555, 4, 8, 0.000000
6, 8, 8, 0.000000
5, 12, 2, 1.49445
7.50555, 7, 2, 7
6, 0.000000, 3, 5
4, 3, 0.000000, 7
7, 5, 2.49445, 8.50555
8, 8.49445, 11.5056, 13
6, 12, 8, 7
9, 6, 0.000000, 6
5, 2, 3, 4.49445
3.50555, 2, 6, 7
4, 5.49445, 11.4944, 7.01111
2
*END

*EOF