Folder: Analysis/XRD:XRR/LCO/22124_LCOT

File: 22124_LCOT_XRD_002.csv
#twotheta, yobs, ycal, bkg, diff
42.0,5.0,1.0,1.0,1.0
42.04,11.0,1.0,1.0,1.0
42.08,16.4944,1.0,1.0,1.0
42.12,21.0,1.0,1.0,1.0
42.16,9.0,1.0,1.0,1.0
42.2,14.0,1.0,1.0,1.0
42.24,7.0,1.0,1.0,1.0
42.28,4.0,1.0,1.0,1.0
42.32,13.0,1.0,1.0,1.0
42.36,13.0,1.0,1.0,1.0
42.4,18.0,1.0,1.0,1.0
42.44,8.4944,1.0,1.0,1.0
42.48,2.5056,1.0,1.0,1.0
42.52,16.0,1.0,1.0,1.0
42.56,17.4944,1.0,1.0,1.0
42.6,6.0,1.0,1.0,1.0
42.64,8.0,1.0,1.0,1.0
42.68,17.0,1.0,1.0,1.0
42.72,7.0,1.0,1.0,1.0
42.76,22.0,1.0,1.0,1.0
42.8,21.0,1.0,1.0,1.0
42.84,26.4944,1.0,1.0,1.0
42.88,17.0,1.0,1.0,1.0
42.92,11.0,1.0,1.0,1.0
42.96,11.5056,1.0,1.0,1.0
43.0,8.0,1.0,1.0,1.0
43.04,6.0,1.0,1.0,1.0
43.08,4.0,1.0,1.0,1.0
43.12,25.0,1.0,1.0,1.0
43.16,31.0,1.0,1.0,1.0
43.2,18.5056,1.0,1.0,1.0
43.24,19.5056,1.0,1.0,1.0
43.28,25.0111,1.0,1.0,1.0
43.32,29.0,1.0,1.0,1.0
43.36,24.5056,1.0,1.0,1.0
43.4,20.5056,1.0,1.0,1.0
43.44,21.4944,1.0,1.0,1.0
43.48,13.0,1.0,1.0,1.0
43.52,14.0,1.0,1.0,1.0
43.56,21.4944,1.0,1.0,1.0
43.6,14.0,1.0,1.0,1.0
43.64,16.4833,1.0,1.0,1.0
43.68,17.0,1.0,1.0,1.0
43.72,43.4944,1.0,1.0,1.0
43.76,48.0,1.0,1.0,1.0
43.8,44.0,1.0,1.0,1.0
43.84,35.0,1.0,1.0,1.0
43.88,27.5056,1.0,1.0,1.0
43.92,28.0111,1.0,1.0,1.0
43.96,36.0,1.0,1.0,1.0
44.0,22.0,1.0,1.0,1.0
44.04,29.9889,1.0,1.0,1.0
44.08,32.0,1.0,1.0,1.0
44.12,46.0,1.0,1.0,1.0
44.16,48.4944,1.0,1.0,1.0
44.2,58.0,1.0,1.0,1.0
44.24,71.5056,1.0,1.0,1.0
44.28,63.4944,1.0,1.0,1.0
44.32,84.0111,1.0,1.0,1.0
44.36,53.0,1.0,1.0,1.0
44.4,34.5056,1.0,1.0,1.0
44.44,44.0,1.0,1.0,1.0
44.48,32.5056,1.0,1.0,1.0
44.52,36.5056,1.0,1.0,1.0
44.56,40.0,1.0,1.0,1.0
44.6,52.0111,1.0,1.0,1.0
44.64,72.0,1.0,1.0,1.0
44.68,87.4944,1.0,1.0,1.0
44.72,108.9889,1.0,1.0,1.0
44.76,122.4944,1.0,1.0,1.0
44.8,101.5167,1.0,1.0,1.0
44.84,122.0222,1.0,1.0,1.0
44.88,94.0111,1.0,1.0,1.0
44.92,91.4944,1.0,1.0,1.0
44.96,47.0111,1.0,1.0,1.0
45.0,44.9889,1.0,1.0,1.0
45.04,60.9889,1.0,1.0,1.0
45.08,62.4944,1.0,1.0,1.0
45.12,107.0,1.0,1.0,1.0
45.16,170.5167,1.0,1.0,1.0
45.2,213.5278,1.0,1.0,1.0
45.24,245.4833,1.0,1.0,1.0
45.28,250.0444,1.0,1.0,1.0
45.32,250.0222,1.0,1.0,1.0
45.36,216.5056,1.0,1.0,1.0
45.4,194.5278,1.0,1.0,1.0
45.44,156.0333,1.0,1.0,1.0
45.48,108.4833,1.0,1.0,1.0
45.52,73.0,1.0,1.0,1.0
45.56,76.5056,1.0,1.0,1.0
45.6,159.4944,1.0,1.0,1.0
45.64,226.0111,1.0,1.0,1.0
45.68,359.0222,1.0,1.0,1.0
45.72,507.9778,1.0,1.0,1.0
45.76,577.0111,1.0,1.0,1.0
45.8,692.9778,1.0,1.0,1.0
45.84,714.0,1.0,1.0,1.0
45.88,685.5278,1.0,1.0,1.0
45.92,574.9778,1.0,1.0,1.0
45.96,427.0222,1.0,1.0,1.0
46.0,257.0222,1.0,1.0,1.0
46.04,132.9889,1.0,1.0,1.0
46.08,136.4833,1.0,1.0,1.0
46.12,413.9889,1.0,1.0,1.0
46.16,913.9667,1.0,1.0,1.0
46.2,1997.9,1.0,1.0,1.0
46.24,3523.36,1.0,1.0,1.0
46.28,5902.35,1.0,1.0,1.0
46.32,9524.38,1.0,1.0,1.0
46.36,15662.4,1.0,1.0,1.0
46.4,39097.9,1.0,1.0,1.0
46.44,226729,1.0,1.0,1.0
46.48,7479363.0,1.0,1.0,1.0
46.52,632381,1.0,1.0,1.0
46.56,134147,1.0,1.0,1.0
46.6,81500.1,1.0,1.0,1.0
46.64,67654.8,1.0,1.0,1.0
46.68,61859.543,1.0,1.0,1.0
46.72,58730.75,1.0,1.0,1.0
46.76,56014.6,1.0,1.0,1.0
46.8,53270.3,1.0,1.0,1.0
46.84,49463.9,1.0,1.0,1.0
46.88,44484.8,1.0,1.0,1.0
46.92,39143.1,1.0,1.0,1.0
46.96,34174.4,1.0,1.0,1.0
47.0,28154.2,1.0,1.0,1.0
47.04,22433.9,1.0,1.0,1.0
47.08,17113.8,1.0,1.0,1.0
47.12,12349.5,1.0,1.0,1.0
47.16,8631.63,1.0,1.0,1.0
47.2,5316.64,1.0,1.0,1.0
47.24,3057.52,1.0,1.0,1.0
47.28,1461.03,1.0,1.0,1.0
47.32,561.0111,1.0,1.0,1.0
47.36,260.5056,1.0,1.0,1.0
47.4,296.0444,1.0,1.0,1.0
47.44,571.4722,1.0,1.0,1.0
47.48,914.0,1.0,1.0,1.0
47.52,1161.99,1.0,1.0,1.0
47.56,1339.48,1.0,1.0,1.0
47.6,1238.54,1.0,1.0,1.0
47.64,1154.01,1.0,1.0,1.0
47.68,935.9889,1.0,1.0,1.0
47.72,732.4722,1.0,1.0,1.0
47.76,456.0,1.0,1.0,1.0
47.8,310.9778,1.0,1.0,1.0
47.84,149.5056,1.0,1.0,1.0
47.88,102.4944,1.0,1.0,1.0
47.92,106.0,1.0,1.0,1.0
47.96,176.4944,1.0,1.0,1.0
48.0,237.0,1.0,1.0,1.0
48.04,301.5167,1.0,1.0,1.0
48.08,331.4944,1.0,1.0,1.0
48.12,350.9333,1.0,1.0,1.0
48.16,348.0222,1.0,1.0,1.0
48.2,287.5056,1.0,1.0,1.0
48.24,215.0222,1.0,1.0,1.0
48.28,128.0111,1.0,1.0,1.0
48.32,110.0111,1.0,1.0,1.0
48.36,68.5056,1.0,1.0,1.0
48.4,55.0,1.0,1.0,1.0
48.44,43.5056,1.0,1.0,1.0
48.48,62.4944,1.0,1.0,1.0
48.52,99.5056,1.0,1.0,1.0
48.56,137.5056,1.0,1.0,1.0
48.6,136.5278,1.0,1.0,1.0
48.64,125.4833,1.0,1.0,1.0
48.68,115.4944,1.0,1.0,1.0
48.72,123.0,1.0,1.0,1.0
48.76,78.5056,1.0,1.0,1.0
48.8,73.5056,1.0,1.0,1.0
48.84,32.4944,1.0,1.0,1.0
48.88,38.0,1.0,1.0,1.0
48.92,40.4944,1.0,1.0,1.0
48.96,41.0222,1.0,1.0,1.0
49.0,36.4944,1.0,1.0,1.0
49.04,42.4944,1.0,1.0,1.0
49.08,41.4833,1.0,1.0,1.0
49.12,66.4944,1.0,1.0,1.0
49.16,60.4944,1.0,1.0,1.0
49.2,71.0,1.0,1.0,1.0
49.24,52.0111,1.0,1.0,1.0
49.28,47.5056,1.0,1.0,1.0
49.32,26.0111,1.0,1.0,1.0
49.36,18.5056,1.0,1.0,1.0
49.4,28.5056,1.0,1.0,1.0
49.44,27.0111,1.0,1.0,1.0
49.48,25.0,1.0,1.0,1.0
49.52,32.0,1.0,1.0,1.0
49.56,28.0111,1.0,1.0,1.0
49.6,15.0,1.0,1.0,1.0
49.64,16.0,1.0,1.0,1.0
49.68,18.4944,1.0,1.0,1.0
49.72,25.0,1.0,1.0,1.0
49.76,40.0,1.0,1.0,1.0
49.8,25.0,1.0,1.0,1.0
49.84,19.4944,1.0,1.0,1.0
49.88,15.0,1.0,1.0,1.0
49.92,10.0,1.0,1.0,1.0
49.96,21.0,1.0,1.0,1.0
50.0,4.0,1.0,1.0,1.0
50.04,10.4944,1.0,1.0,1.0
50.08,20.0,1.0,1.0,1.0
50.12,31.0,1.0,1.0,1.0
50.16,11.0,1.0,1.0,1.0
50.2,12.0,1.0,1.0,1.0
50.24,4.0,1.0,1.0,1.0
50.28,8.0,1.0,1.0,1.0
50.32,18.0,1.0,1.0,1.0
50.36,14.4944,1.0,1.0,1.0
50.4,21.5056,1.0,1.0,1.0
50.44,7.0,1.0,1.0,1.0
50.48,14.0,1.0,1.0,1.0
50.52,12.0,1.0,1.0,1.0
50.56,6.5056,1.0,1.0,1.0
50.6,15.0,1.0,1.0,1.0
50.64,0.4944,1.0,1.0,1.0
50.68,5.0,1.0,1.0,1.0
50.72,14.0,1.0,1.0,1.0
50.76,12.5056,1.0,1.0,1.0
50.8,8.0,1.0,1.0,1.0
50.84,5.0,1.0,1.0,1.0
50.88,14.0,1.0,1.0,1.0
50.92,11.0,1.0,1.0,1.0
50.96,3.0,1.0,1.0,1.0
51.0,3.0,1.0,1.0,1.0
51.04,6.0,1.0,1.0,1.0
51.08,3.0,1.0,1.0,1.0
51.12,2.0,1.0,1.0,1.0
51.16,4.0,1.0,1.0,1.0
51.2,6.0,1.0,1.0,1.0
51.24,4.0,1.0,1.0,1.0
51.28,6.4944,1.0,1.0,1.0
51.32,3.0,1.0,1.0,1.0
51.36,9.0,1.0,1.0,1.0
51.4,11.0,1.0,1.0,1.0
51.44,6.5056,1.0,1.0,1.0
51.48,6.0,1.0,1.0,1.0
51.52,11.0,1.0,1.0,1.0
51.56,7.0,1.0,1.0,1.0
51.6,3.5056,1.0,1.0,1.0
51.64,0.0,1.0,1.0,1.0
51.68,8.0,1.0,1.0,1.0
51.72,9.4944,1.0,1.0,1.0
51.76,5.0,1.0,1.0,1.0
51.8,3.4944,1.0,1.0,1.0
51.84,2.0,1.0,1.0,1.0
51.88,8.0,1.0,1.0,1.0
51.92,6.0,1.0,1.0,1.0
51.96,9.0,1.0,1.0,1.0
52.0,1.0,1.0,1.0,1.0

File: 22124_LCOT_XRD_002_2-Theta_Omega.asc
*TYPE		=  Raw
*CLASS		=  ASCII CLASS
*SAMPLE		=
*COMMENT	=
*FNAME		=  22124_LCOT_XRD_002_2-Theta_Omega.asc
*DATE		=  18-Aug-22 00:10

*GROUP_COUNT	=  1
*GONIO		=  SmartLab(In-plane), 0.000000
*ATTACHMENT	=  Z-Phi Stage
*ASC		=  0, 0, 0.000000, 0.000000
*I_MONOCHRO	=  Ge(220)x2, 0.000000
*FILTER		=  None
*C_MONOCHRO	=  None, 0.000000
*SLIT_NAME	=  0, Incident slit
*SLIT_NAME	=  1, Receiving slit # 1
*SLIT_NAME	=  2, Receiving slit # 2
*COUNTER	=  D/teX Ultra 250, 0
*POS_FORMAT	=  0
*SCAN_AXIS	=  2Theta/Omega
*MEAS_MODE	=  Continuous Scanning
*TARGET		=  29
*XRAY_CHAR	=  K-ALPHA1
*WAVE_LENGTH1	=  1.54059
*WAVE_LENGTH2	=  1.54441
*THICKNESS	=  0, 0.000000
*MU		=  0, 0.000000
*SCAN_MODE	=  2Theta/Omega
*SPEED_DIM	=  sec./step
*XUNIT		=  deg.
*YUNIT		=  counts
*SCALE_MODE	=  1
*REP_COUNT	=  0
*SE_COUNT	=  0
*STD_MATERIAL	=  Unknown, Unknown, 0.000000, 0.000000, 0.000000, 0.000000, 0.000000, 0.000000
*LATT_CONS	=  0, Unknown, Unknown, 0.000000, 0.000000, 0.000000, 0.000000, 0.000000, 0.000000
*SEC_COUNT	=  1
*TSPEC_SIZE	=  0
*EXTRA_SIZE	=  0
*MEMO		=

*BEGIN
*GROUP		=  0
*START		=  42
*STOP		=  52
*STEP		=  0.01
*OFFSET		=  0.2046
*SPEED		=  23.9588
*SLIT_SPEC	=  0, 0.400mm, 0.4, 0.000000
*SLIT_SPEC	=  1, 0.400mm, 0.4, 0.000000
*SLIT_SPEC	=  2, 0.400mm, 0.4, 0.000000
*KV		=  40
*MA		=  30
*LOW		=  0.000000
*HIGH		=  0.000000
*CTEMPER	=  0, 0.000000
*CTEMPER	=  1, 0.000000
*CTEMPER	=  2, 0.000000
*PAREX		=  0, 0.000000
*PAREX		=  1, 0.000000
*PAREX		=  2, 0.000000
*PAREX		=  3, 0.000000
*PAREX		=  4, 0.000000
*PAREX		=  5, 0.000000
*PAREX		=  6, 0.000000
*PAREX		=  7, 0.000000
*PAREX		=  8, 0.000000
*PAREX		=  9, 0.000000
*PAREX		=  10, 0.000000
*PAREX		=  11, 0.000000
*PAREX		=  12, 0.000000
*PAREX		=  13, 0.000000
*PAREX		=  14, 0.000000
*PAREX		=  15, 0.000000
*FULL_SCALE	=  2725461
*INDEX		=  0, 0, 0
*COUNT		=  1001
5, 0.000000, 9, 0.000000
11, 8, 3, 7
16.4944, 7.50555, 2, 8
21, 11, 6.49445, 5.50555
9, 16.4944, 17, 12.5056
14, 10, 15, 13
7, 12, 12, 6
4, 0.000000, 10, 13
13, 11, 10, 21
13, 24, 13.4944, 12.5056
18, 18, 9, 12
8.49445, 5.50555, 4, 6.49445
2.50555, 21, 21, 6
16, 7.49445, 19.5056, 14
17.4944, 4, 14.5056, 7
6, 11, 14.4944, 14
8, 15.5056, 14, 2
17, 14, 12, 18
7, 16, 16, 14
22, 22, 14, 16
21, 18, 7.98889, 20.0111
26.4944, 26.5056, 19.9889, 11.0111
17, 17.4944, 18.5056, 10
11, 10, 17.4944, 17
11.5056, 8.49445, 22.5056, 12
8, 8, 11, 15
6, 9.49445, 12, 15.5056
4, 10, 12.4944, 19.5056
25, 11, 6.49445, 7.50555
31, 32, 27.9889, 31.5056
18.5056, 8.49445, 16.5056, 47.4944
19.5056, 32, 40.4944, 33.4944
25.0111, 19.4944, 19, 32.5056
29, 10, 40.4944, 17
24.5056, 19, 29, 24.4944
20.5056, 28, 28.4944, 20.5056
21.4944, 22, 19, 20.5056
13, 7, 24, 15
14, 13, 12, 10
21.4944, 21.5056, 15.9889, 21.0111
14, 14.4944, 19.5056, 26
16.4833, 32.0111, 27.5056, 15.4944
17, 23.5056, 39, 35
43.4944, 29.5056, 40, 47
48, 43.4944, 32, 37
44, 46, 36.4944, 30.0111
35, 47, 31.4944, 18
27.5056, 23, 18, 36.9889
28.0111, 28, 21, 23
36, 26, 10, 18
22, 21, 21.4944, 34.5056
29.9889, 25.5056, 29.5056, 31
32, 35.4833, 50.4944, 34.0222
46, 46.4833, 30.0111, 43
48.4944, 62.0111, 60.4833, 65.0111
58, 63, 90.9889, 84.5056
71.5056, 56, 92, 42
63.4944, 69.4833, 75.5167, 72
84.0111, 51.4944, 47, 72
53, 52.4944, 45.0111, 52.4944
34.5056, 41.4944, 63, 46
44, 41.5056, 45.4833, 56.0111
32.5056, 37.4944, 34.5056, 29.4944
36.5056, 39, 32.4944, 40.5056
40, 39.4944, 47, 49.4944
52.0111, 64.4944, 58, 59.5056
72, 71.9889, 95.5056, 78.9889
87.4944, 87.0222, 95.9889, 99.5056
108.989, 152, 147.506, 105.011
122.494, 139.506, 139.978, 143.506
101.517, 121.989, 90.5056, 108.472
122.022, 105.506, 93.5056, 107.472
94.0111, 103.011, 88.5056, 85
91.4944, 82.5056, 75, 63.9889
47.0111, 66.4944, 67.9889, 65.0111
44.9889, 55.5167, 54.9889, 59.0111
60.9889, 83.4944, 73.5056, 55.0111
62.4944, 99.9889, 107.506, 86.4944
107, 116, 122.989, 129.011
170.517, 166.989, 160.978, 176.989
213.528, 179.483, 194.528, 195.483
245.483, 212.011, 215.011, 214.461
250.044, 212.978, 268.022, 238.483
250.022, 265.483, 201.506, 223.483
216.506, 187, 210.506, 222.483
194.528, 161.989, 173, 148.483
156.033, 116.494, 121, 123
108.483, 116, 109.022, 83.4944
73, 97.0111, 76, 95.9889
76.5056, 104.483, 114.506, 108.494
159.494, 142.517, 184.978, 176.494
226.011, 249.989, 307, 313.483
359.022, 368.978, 422.022, 405.989
507.978, 529.011, 508.033, 503.461
577.011, 688.483, 662, 693
692.978, 697, 791.044, 743.472
714, 750.944, 673.022, 663.517
685.528, 672.506, 633.944, 657.067
574.978, 527.011, 510.517, 486.483
427.022, 344.483, 360.011, 281.494
257.022, 198.011, 191.494, 133.506
132.989, 110.506, 118.494, 114.517
136.483, 168.494, 200.011, 280.989
413.989, 493.967, 503.989, 695.506
913.967, 1072.46, 1357.48, 1583.53
1997.9, 2240.44, 2676.52, 2970.46
3523.36, 3976.01, 4615, 5147.33
5902.35, 6572.1, 7568.79, 8613.24
9524.38, 10585.5, 11986.7, 13721.9
15662.4, 19054.9, 22801, 28710.1
39097.9, 55072.1, 81365.8, 131154
226729, 393082, 638873, 1360912.8
7479363, 44020788, 29313042, 3144145.5
632381, 330194, 226508, 170977
134147, 110146, 96751, 87737.5
81500.1, 75951.8, 72411.5, 69111.2
67654.8, 65398.7, 64222.9, 62809.4
61859.5, 60988, 60215.4, 59700.2
58730.8, 58194.7, 57563.1, 57381.6
56014.6, 55634.8, 54666.7, 53341.9
53270.3, 52241.2, 51215.3, 49942.7
49463.9, 48267.8, 46665.9, 45705.4
44484.8, 43580.3, 42449.6, 40763.7
39143.1, 38440.3, 36976.3, 35482.5
34174.4, 32302, 31154.6, 29939
28154.2, 26617.2, 25359.6, 23724.6
22433.9, 21055.9, 19716.7, 18582.5
17113.8, 15822.8, 14802.4, 13719.1
12349.5, 11237.4, 10294, 9476.08
8631.63, 7636.21, 6888.01, 6102.04
5316.64, 4540.07, 4027.09, 3487.99
3057.52, 2490.13, 2117.04, 1703.54
1461.03, 1146.51, 920.022, 706.044
561.011, 439.033, 370.944, 308.539
260.506, 217, 284.494, 267.472
296.044, 356.461, 404.494, 479.506
571.472, 659.989, 732.989, 768.989
914, 977.539, 1002.96, 1046.99
1161.99, 1181.02, 1206.01, 1250.97
1339.48, 1272.06, 1273.48, 1289.49
1238.54, 1236.44, 1245.98, 1164.02
1154.01, 1062.57, 1061.46, 1025.49
935.989, 902, 833.011, 751.056
732.472, 694.011, 577.483, 549.022
456, 400.044, 373.494, 316.989
310.978, 247.044, 218, 145.494
149.506, 114.989, 109.022, 102.494
102.494, 80.9889, 82.5167, 83.4944
106, 93.4833, 142.011, 146
176.494, 177.022, 212.989, 214.989
237, 215.494, 291.978, 309.506
301.517, 309.978, 349.528, 361.472
331.494, 334.494, 360.539, 337.011
350.933, 352.517, 330.022, 311
348.022, 337.461, 284, 297.022
287.506, 254.494, 250.022, 246.461
215.022, 200.011, 177, 171.989
128.011, 121.517, 138.494, 104.989
110.011, 94.9889, 84.0111, 68.4944
68.5056, 67, 54.5056, 54
55, 40.4833, 49.5167, 49.4944
43.5056, 66.4944, 73, 51.5056
62.4944, 64.4944, 78.0111, 79.4944
99.5056, 92.4722, 86.0222, 95.4944
137.506, 133, 134, 130.472
136.528, 147.989, 127, 124.517
125.483, 159.494, 123.506, 120.506
115.494, 129, 117, 103.011
123, 82.4944, 97, 89
78.5056, 72.4944, 90, 80.5056
73.5056, 47.4833, 39, 55.5167
32.4944, 40, 52.4833, 30.0222
38, 29, 28, 29.4944
40.4944, 30.5056, 20.5056, 39.9778
41.0222, 48, 65.4944, 33
36.4944, 45.4944, 44.0111, 46.5056
42.4944, 61.5056, 38, 49
41.4833, 52.5167, 43.4944, 63
66.4944, 63.0111, 51.4944, 57.4944
60.4944, 54.5167, 66.9889, 64.0111
71, 47.4944, 45.5056, 56.9889
52.0111, 47.4944, 47, 44
47.5056, 61, 34.4944, 36.4944
26.0111, 29.4944, 33.5056, 30.4944
18.5056, 15, 37.4944, 27
28.5056, 20, 16, 21.9889
27.0111, 17, 20.4944, 21.5056
25, 27.4944, 27.5056, 12
32, 26, 33.4944, 46.4944
28.0111, 22.9889, 26.0111, 31
15, 50, 28, 36.4944
16, 35.5056, 28.9889, 35.0111
18.4944, 20.5056, 31, 22
25, 29, 26, 29
40, 16, 33, 19
25, 17, 15, 26
19.4944, 25, 16.5056, 10
15, 13.4944, 12.5056, 4
10, 55, 12, 11
21, 12, 7, 9
4, 10, 26, 13
10.4944, 20.5056, 6, 18
20, 21, 5.98889, 19.5056
31, 12.4944, 19.0111, 15
11, 4, 11, 17
12, 24.4944, 11.5056, 12
4, 5, 7, 13
8, 10, 13, 11.4944
18, 10.5056, 7, 14
14.4944, 10.5056, 8, 20.4944
21.5056, 17.4944, 6, 7.50555
7, 11, 4.49445, 5.50555
14, 6, 13, 24
12, 10, 9, 13.4944
6.50555, 12, 7.49445, 9.50555
15, 9, 14.4944, 9.50555
0.494446, 5.50555, 20.4944, 3.50555
5, 4, 8, 7
14, 9, 7, 4.49445
12.5056, 14, 0.000000, 4
8, 13.4944, 9.50555, 12
5, 7, 2, 14
14, 8.49445, 9.50555, 12
11, 10, 7.98889, 3.01111
3, 13, 12.4944, 6.50555
3, 0.000000, 11, 14
6, 7, 10, 5
3, 8, 12, 4
2, 2, 0.000000, 0.000000
4, 2, 2, 8
6, 3, 12, 0.000000
4, 4, 2, 8
6.49445, 10.5056, 2, 3
3, 3, 7, 6
9, 9, 2, 11
11, 10, 4, 7.49445
6.50555, 5, 2, 14
6, 6, 9, 3
11, 2, 0.000000, 7
7, 8.49445, 9.50555, 2.49445
3.50555, 7, 8, 0.000000
0.000000, 2, 10, 8
8, 5, 7, 7
9.49445, 5.50555, 2, 4
5, 5, 2, 3
3.49445, 5.50555, 0.000000, 2
2, 9, 2, 3
8, 7, 10, 5
6, 2, 0.000000, 13
9, 5, 7, 1
1
*END

*EOF

File: 22124_LCOT_XRR_2-Theta_Omega.asc
*TYPE		=  Raw
*CLASS		=  ASCII CLASS
*SAMPLE		=
*COMMENT	=
*FNAME		=  22124_LCOT_XRR_2-Theta_Omega.asc
*DATE		=  18-Aug-22 16:23

*GROUP_COUNT	=  1
*GONIO		=  SmartLab(In-plane), 0.000000
*ATTACHMENT	=  Z-Phi Stage
*ASC		=  0, 0, 0.000000, 0.000000
*I_MONOCHRO	=  Ge(220)x2, 0.000000
*FILTER		=  None
*C_MONOCHRO	=  None, 0.000000
*SLIT_NAME	=  0, Incident slit
*SLIT_NAME	=  1, Receiving slit # 1
*SLIT_NAME	=  2, Receiving slit # 2
*COUNTER	=  D/teX Ultra 250, 0
*POS_FORMAT	=  0
*SCAN_AXIS	=  2Theta/Omega
*MEAS_MODE	=  Continuous Scanning
*TARGET		=  29
*XRAY_CHAR	=  K-ALPHA1
*WAVE_LENGTH1	=  1.54059
*WAVE_LENGTH2	=  1.54441
*THICKNESS	=  0, 0.000000
*MU		=  0, 0.000000
*SCAN_MODE	=  2Theta/Omega
*SPEED_DIM	=  sec./step
*XUNIT		=  deg.
*YUNIT		=  counts
*SCALE_MODE	=  1
*REP_COUNT	=  0
*SE_COUNT	=  0
*STD_MATERIAL	=  Unknown, Unknown, 0.000000, 0.000000, 0.000000, 0.000000, 0.000000, 0.000000
*LATT_CONS	=  0, Unknown, Unknown, 0.000000, 0.000000, 0.000000, 0.000000, 0.000000, 0.000000
*SEC_COUNT	=  1
*TSPEC_SIZE	=  0
*EXTRA_SIZE	=  0
*MEMO		=

*BEGIN
*GROUP		=  0
*START		=  0.4
*STOP		=  4.5
*STEP		=  0.01
*OFFSET		=  -0.023600
*SPEED		=  23.9588
*SLIT_SPEC	=  0, 1.000mm, 1, 0.000000
*SLIT_SPEC	=  1, 1.000mm, 1, 0.000000
*SLIT_SPEC	=  2, 1.000mm, 1, 0.000000
*KV		=  40
*MA		=  30
*LOW		=  0.000000
*HIGH		=  0.000000
*CTEMPER	=  0, 0.000000
*CTEMPER	=  1, 0.000000
*CTEMPER	=  2, 0.000000
*PAREX		=  0, 0.000000
*PAREX		=  1, 0.000000
*PAREX		=  2, 0.000000
*PAREX		=  3, 0.000000
*PAREX		=  4, 0.000000
*PAREX		=  5, 0.000000
*PAREX		=  6, 0.000000
*PAREX		=  7, 0.000000
*PAREX		=  8, 0.000000
*PAREX		=  9, 0.000000
*PAREX		=  10, 0.000000
*PAREX		=  11, 0.000000
*PAREX		=  12, 0.000000
*PAREX		=  13, 0.000000
*PAREX		=  14, 0.000000
*PAREX		=  15, 0.000000
*FULL_SCALE	=  124576
*INDEX		=  0, 0, 0
*COUNT		=  411
1900071.5, 1942550.5, 1982827.5, 2026080.5
2063723.5, 2102139.5, 2142681, 2179132.5
2212862, 2248214, 2284355.5, 2310946
2340119.5, 2363939.5, 2388608.5, 2406822.5
2428838.5, 2442431.5, 2455496, 2459421
2459767, 2459654.5, 2450917.5, 2437303
2408974.5, 2374240, 2331826.5, 2278276
2215688.5, 2142097, 2059973.6, 1972758.1
1869689.6, 1764292.6, 1649770.6, 1528581.1
1405624.6, 1279929.1, 1150199.1, 1025719.6
904184, 790437, 685583, 593442
514596, 446160, 391295, 347619
315716, 290779, 275882, 265329
258511, 253748, 251128, 248859
247324, 243584, 238237, 232351
226981, 218494, 208753, 199477
187603, 175327, 164028, 150925
140205, 128839, 117256, 106465
97586.5, 89097, 81790, 75104.5
70077.5, 65143, 61800.5, 59383.5
57403.5, 55972.5, 55601.5, 55277.5
55206, 55744, 56122.5, 57147
57674.5, 58047, 58561.5, 58757
58604.5, 57734.5, 57646, 56206.5
55451, 53502.5, 52040, 50037
47730, 45662.5, 43068.5, 40826.5
38294, 35845, 33504.5, 31466.5
28637, 27470.5, 25160.5, 23232.5
22252, 21043.5, 19751.5, 18850
18299.5, 17719.5, 17447.5, 17430
17286, 17629.5, 17520.5, 17735.5
17927, 18041.5, 18619, 18918.5
18958.5, 19376.5, 19384.5, 19167.5
19345, 19360.5, 18829, 18838
18396.5, 17953, 17483.5, 16572.5
16096.5, 15545, 14831, 13988
13453, 12633, 12024.5, 11144
10723.5, 9882, 9472, 8747
8127.5, 7812.5, 7535.5, 7428
7039, 6881, 6729.5, 6650.5
6648, 6746.5, 6565.5, 6796.5
6838.5, 6935, 7212.5, 7392.5
7356, 7339.5, 7527, 7507
7516, 7473.5, 7639, 7433.5
7475, 7280.5, 7300.5, 6914.5
6663, 6676, 6310.5, 6162.5
5949.5, 5591.5, 5417, 5090
4885.5, 4540.5, 4419.5, 4213
3945, 3770, 3643, 3375.5
3358, 3232, 3147.5, 3043
3006, 2967.5, 2991.5, 3096
2982.5, 3102, 3098, 3079
3149.5, 3210, 3253.5, 3296
3419, 3437.5, 3425, 3533.5
3408.5, 3332, 3355.5, 3282
3203.5, 3267, 3087.5, 3114
3043, 2855.5, 2804.5, 2713
2568, 2502.5, 2384, 2313
2249.5, 2041.5, 1992, 1931
1888.5, 1770.5, 1670, 1749
1628.5, 1639.5, 1624, 1569
1655.5, 1593.5, 1552.5, 1475.5
1673, 1607.5, 1567, 1704
1685.5, 1657, 1675.5, 1694
1631.5, 1760.5, 1707.5, 1705.5
1664.5, 1711, 1650.5, 1644.5
1646.5, 1612, 1499.5, 1532.5
1534, 1454, 1472.5, 1371.5
1401.5, 1321, 1316, 1188.5
1240, 1130, 1145.5, 1108.5
1118, 1056, 1073.5, 1022.5
957, 955.5, 913, 909.5
947, 986, 977.5, 964.5
1003, 1004, 1007.5, 976
988, 1007.5, 997.5, 1034
1056.5, 1074.5, 1009, 1065.5
1008, 1031.5, 1042, 985.001
963, 991, 961.5, 973
940.5, 984.5, 927.5, 891.5
906, 917.5, 847, 824.501
830, 779, 802.5, 753.5
726.5, 732, 769.5, 712.5
710, 709.001, 693.5, 681.999
711, 721.999, 696.001, 692.5
792.5, 654.5, 753.5, 731.5
711.5, 705.5, 726.5, 770.5
744, 775.5, 633.5, 745
734, 746, 772.5, 714
769.5, 756.5, 709.5, 768.5
712, 749, 635.501, 642.999
653.5, 640, 650.5, 678.5
647, 628, 643.5, 609
623, 592.5, 649, 630.5
610, 530, 544.5, 535
586, 585.5, 537, 589
573.5, 548.5, 562, 585
559.5, 589.5, 656, 615
625.5, 560, 648, 587.5
636.5, 634, 633.5, 610.5
587.001, 594.999, 606.501, 587.999
645, 605.5, 616, 548.5
558.5, 545, 575, 482.5
546.5, 580.5, 517.5
*END

*EOF