Folder: Analysis/XRD:XRR/LCO/22123_LCOT

File: 22123_LCOT_XRD_002.csv
#twotheta, yobs, ycal, bkg, diff
42.0,18.0,1.0,1.0,1.0
42.04,5.0,1.0,1.0,1.0
42.08,13.9889,1.0,1.0,1.0
42.12,9.0,1.0,1.0,1.0
42.16,17.4944,1.0,1.0,1.0
42.2,15.5056,1.0,1.0,1.0
42.24,31.9889,1.0,1.0,1.0
42.28,10.0,1.0,1.0,1.0
42.32,8.0,1.0,1.0,1.0
42.36,7.0,1.0,1.0,1.0
42.4,8.5056,1.0,1.0,1.0
42.44,21.5056,1.0,1.0,1.0
42.48,10.0111,1.0,1.0,1.0
42.52,12.0,1.0,1.0,1.0
42.56,15.5056,1.0,1.0,1.0
42.6,14.4944,1.0,1.0,1.0
42.64,18.5056,1.0,1.0,1.0
42.68,21.0111,1.0,1.0,1.0
42.72,10.0,1.0,1.0,1.0
42.76,11.0,1.0,1.0,1.0
42.8,18.0,1.0,1.0,1.0
42.84,28.5056,1.0,1.0,1.0
42.88,24.5056,1.0,1.0,1.0
42.92,18.0,1.0,1.0,1.0
42.96,17.0,1.0,1.0,1.0
43.0,18.5056,1.0,1.0,1.0
43.04,29.0,1.0,1.0,1.0
43.08,28.0,1.0,1.0,1.0
43.12,16.5056,1.0,1.0,1.0
43.16,17.0,1.0,1.0,1.0
43.2,24.0,1.0,1.0,1.0
43.24,12.0,1.0,1.0,1.0
43.28,16.0,1.0,1.0,1.0
43.32,22.0,1.0,1.0,1.0
43.36,28.0,1.0,1.0,1.0
43.4,19.0,1.0,1.0,1.0
43.44,15.5056,1.0,1.0,1.0
43.48,19.0,1.0,1.0,1.0
43.52,40.5056,1.0,1.0,1.0
43.56,24.5056,1.0,1.0,1.0
43.6,25.4944,1.0,1.0,1.0
43.64,22.0,1.0,1.0,1.0
43.68,20.0,1.0,1.0,1.0
43.72,30.5056,1.0,1.0,1.0
43.76,31.5056,1.0,1.0,1.0
43.8,25.4944,1.0,1.0,1.0
43.84,46.4944,1.0,1.0,1.0
43.88,25.0,1.0,1.0,1.0
43.92,22.0,1.0,1.0,1.0
43.96,22.0,1.0,1.0,1.0
44.0,37.9889,1.0,1.0,1.0
44.04,52.0,1.0,1.0,1.0
44.08,42.4944,1.0,1.0,1.0
44.12,35.9889,1.0,1.0,1.0
44.16,22.0111,1.0,1.0,1.0
44.2,29.9889,1.0,1.0,1.0
44.24,42.5056,1.0,1.0,1.0
44.28,54.0111,1.0,1.0,1.0
44.32,56.0,1.0,1.0,1.0
44.36,37.5056,1.0,1.0,1.0
44.4,26.9889,1.0,1.0,1.0
44.44,45.0111,1.0,1.0,1.0
44.48,63.9889,1.0,1.0,1.0
44.52,81.0,1.0,1.0,1.0
44.56,52.4833,1.0,1.0,1.0
44.6,26.9889,1.0,1.0,1.0
44.64,39.0,1.0,1.0,1.0
44.68,61.4944,1.0,1.0,1.0
44.72,100.4944,1.0,1.0,1.0
44.76,104.9889,1.0,1.0,1.0
44.8,67.5167,1.0,1.0,1.0
44.84,28.0,1.0,1.0,1.0
44.88,79.5056,1.0,1.0,1.0
44.92,107.0111,1.0,1.0,1.0
44.96,138.5056,1.0,1.0,1.0
45.0,104.9889,1.0,1.0,1.0
45.04,73.0111,1.0,1.0,1.0
45.08,45.4944,1.0,1.0,1.0
45.12,106.0111,1.0,1.0,1.0
45.16,181.5056,1.0,1.0,1.0
45.2,190.4944,1.0,1.0,1.0
45.24,101.5167,1.0,1.0,1.0
45.28,82.4833,1.0,1.0,1.0
45.32,80.0111,1.0,1.0,1.0
45.36,164.4611,1.0,1.0,1.0
45.4,325.0111,1.0,1.0,1.0
45.44,267.4833,1.0,1.0,1.0
45.48,151.0222,1.0,1.0,1.0
45.52,87.5056,1.0,1.0,1.0
45.56,139.9778,1.0,1.0,1.0
45.6,313.9556,1.0,1.0,1.0
45.64,425.0,1.0,1.0,1.0
45.68,363.5389,1.0,1.0,1.0
45.72,189.0222,1.0,1.0,1.0
45.76,114.5167,1.0,1.0,1.0
45.8,246.5278,1.0,1.0,1.0
45.84,582.9667,1.0,1.0,1.0
45.88,814.4944,1.0,1.0,1.0
45.92,685.9778,1.0,1.0,1.0
45.96,324.0333,1.0,1.0,1.0
46.0,210.4833,1.0,1.0,1.0
46.04,562.4944,1.0,1.0,1.0
46.08,1345.97,1.0,1.0,1.0
46.12,1879.0,1.0,1.0,1.0
46.16,1714.59,1.0,1.0,1.0
46.2,936.5278,1.0,1.0,1.0
46.24,1040.98,1.0,1.0,1.0
46.28,3521.38,1.0,1.0,1.0
46.32,10753.6,1.0,1.0,1.0
46.36,35267.8,1.0,1.0,1.0
46.4,164124,1.0,1.0,1.0
46.44,1275508.625,1.0,1.0,1.0
46.48,17550426.0,1.0,1.0,1.0
46.52,3772168.75,1.0,1.0,1.0
46.56,338374.375,1.0,1.0,1.0
46.6,48431.7,1.0,1.0,1.0
46.64,47657.1,1.0,1.0,1.0
46.68,80411.9,1.0,1.0,1.0
46.72,121680,1.0,1.0,1.0
46.76,156716,1.0,1.0,1.0
46.8,170819,1.0,1.0,1.0
46.84,157385,1.0,1.0,1.0
46.88,122964,1.0,1.0,1.0
46.92,78669,1.0,1.0,1.0
46.96,40983.3,1.0,1.0,1.0
47.0,14563,1.0,1.0,1.0
47.04,3698.04,1.0,1.0,1.0
47.08,2517.0,1.0,1.0,1.0
47.12,4603.38,1.0,1.0,1.0
47.16,5174.98,1.0,1.0,1.0
47.2,3712.65,1.0,1.0,1.0
47.24,1585.47,1.0,1.0,1.0
47.28,541.0333,1.0,1.0,1.0
47.32,897.5056,1.0,1.0,1.0
47.36,1596.98,1.0,1.0,1.0
47.4,1814.45,1.0,1.0,1.0
47.44,1392.07,1.0,1.0,1.0
47.48,608.4833,1.0,1.0,1.0
47.52,200.0222,1.0,1.0,1.0
47.56,473.4944,1.0,1.0,1.0
47.6,820.9889,1.0,1.0,1.0
47.64,954.5167,1.0,1.0,1.0
47.68,652.5278,1.0,1.0,1.0
47.72,287.0,1.0,1.0,1.0
47.76,149.4944,1.0,1.0,1.0
47.8,301.9778,1.0,1.0,1.0
47.84,492.5056,1.0,1.0,1.0
47.88,487.0333,1.0,1.0,1.0
47.92,334.0,1.0,1.0,1.0
47.96,189.0,1.0,1.0,1.0
48.0,86.4833,1.0,1.0,1.0
48.04,186.0,1.0,1.0,1.0
48.08,339.0111,1.0,1.0,1.0
48.12,289.0222,1.0,1.0,1.0
48.16,199.0333,1.0,1.0,1.0
48.2,91.5056,1.0,1.0,1.0
48.24,74.4944,1.0,1.0,1.0
48.28,114.0111,1.0,1.0,1.0
48.32,191.5056,1.0,1.0,1.0
48.36,177.5056,1.0,1.0,1.0
48.4,116.4833,1.0,1.0,1.0
48.44,88.0111,1.0,1.0,1.0
48.48,41.0,1.0,1.0,1.0
48.52,88.5056,1.0,1.0,1.0
48.56,104.0111,1.0,1.0,1.0
48.6,107.0111,1.0,1.0,1.0
48.64,86.5056,1.0,1.0,1.0
48.68,41.5056,1.0,1.0,1.0
48.72,30.0,1.0,1.0,1.0
48.76,59.4944,1.0,1.0,1.0
48.8,78.0,1.0,1.0,1.0
48.84,74.0,1.0,1.0,1.0
48.88,63.4944,1.0,1.0,1.0
48.92,23.0,1.0,1.0,1.0
48.96,34.0,1.0,1.0,1.0
49.0,45.4944,1.0,1.0,1.0
49.04,53.0111,1.0,1.0,1.0
49.08,33.0,1.0,1.0,1.0
49.12,31.5056,1.0,1.0,1.0
49.16,16.0,1.0,1.0,1.0
49.2,30.4944,1.0,1.0,1.0
49.24,42.5056,1.0,1.0,1.0
49.28,34.4944,1.0,1.0,1.0
49.32,28.0111,1.0,1.0,1.0
49.36,11.4944,1.0,1.0,1.0
49.4,31.0111,1.0,1.0,1.0
49.44,23.0,1.0,1.0,1.0
49.48,13.0,1.0,1.0,1.0
49.52,25.0,1.0,1.0,1.0
49.56,28.0,1.0,1.0,1.0
49.6,23.0,1.0,1.0,1.0
49.64,9.5056,1.0,1.0,1.0
49.68,17.5056,1.0,1.0,1.0
49.72,19.0,1.0,1.0,1.0
49.76,26.0,1.0,1.0,1.0
49.8,16.5056,1.0,1.0,1.0
49.84,12.4944,1.0,1.0,1.0
49.88,9.0,1.0,1.0,1.0
49.92,21.0,1.0,1.0,1.0
49.96,25.0,1.0,1.0,1.0
50.0,20.0,1.0,1.0,1.0
50.04,12.0111,1.0,1.0,1.0
50.08,19.4944,1.0,1.0,1.0
50.12,6.0,1.0,1.0,1.0
50.16,9.0,1.0,1.0,1.0
50.2,20.0,1.0,1.0,1.0
50.24,12.5056,1.0,1.0,1.0
50.28,5.0,1.0,1.0,1.0
50.32,18.0,1.0,1.0,1.0
50.36,21.0,1.0,1.0,1.0
50.4,16.0,1.0,1.0,1.0
50.44,13.9889,1.0,1.0,1.0
50.48,13.9889,1.0,1.0,1.0
50.52,14.0,1.0,1.0,1.0
50.56,7.4944,1.0,1.0,1.0
50.6,15.0,1.0,1.0,1.0
50.64,6.0,1.0,1.0,1.0
50.68,11.0,1.0,1.0,1.0
50.72,7.0,1.0,1.0,1.0
50.76,9.0,1.0,1.0,1.0
50.8,10.0,1.0,1.0,1.0
50.84,1.5056,1.0,1.0,1.0
50.88,6.0,1.0,1.0,1.0
50.92,8.0,1.0,1.0,1.0
50.96,2.0,1.0,1.0,1.0
51.0,4.0,1.0,1.0,1.0
51.04,10.4944,1.0,1.0,1.0
51.08,6.0,1.0,1.0,1.0
51.12,5.0,1.0,1.0,1.0
51.16,12.4944,1.0,1.0,1.0
51.2,9.0,1.0,1.0,1.0
51.24,4.0,1.0,1.0,1.0
51.28,0.4944,1.0,1.0,1.0
51.32,5.0,1.0,1.0,1.0
51.36,5.0,1.0,1.0,1.0
51.4,9.0,1.0,1.0,1.0
51.44,4.0,1.0,1.0,1.0
51.48,2.0,1.0,1.0,1.0
51.52,1.9889,1.0,1.0,1.0
51.56,2.0,1.0,1.0,1.0
51.6,8.0,1.0,1.0,1.0
51.64,1.9889,1.0,1.0,1.0
51.68,5.0,1.0,1.0,1.0
51.72,8.0,1.0,1.0,1.0
51.76,5.0,1.0,1.0,1.0
51.8,2.5056,1.0,1.0,1.0
51.84,8.0,1.0,1.0,1.0
51.88,7.9889,1.0,1.0,1.0
51.92,7.4944,1.0,1.0,1.0
51.96,9.0,1.0,1.0,1.0
52.0,5.0,1.0,1.0,1.0

File: 22123_LCOT_XRD_002_2-Theta_Omega.asc
*TYPE		=  Raw
*CLASS		=  ASCII CLASS
*SAMPLE		=
*COMMENT	=
*FNAME		=  22123_LCOT_XRD_002_2-Theta_Omega.asc
*DATE		=  17-Aug-22 01:30

*GROUP_COUNT	=  1
*GONIO		=  SmartLab(In-plane), 0.000000
*ATTACHMENT	=  Z-Phi Stage
*ASC		=  0, 0, 0.000000, 0.000000
*I_MONOCHRO	=  Ge(220)x2, 0.000000
*FILTER		=  None
*C_MONOCHRO	=  None, 0.000000
*SLIT_NAME	=  0, Incident slit
*SLIT_NAME	=  1, Receiving slit # 1
*SLIT_NAME	=  2, Receiving slit # 2
*COUNTER	=  D/teX Ultra 250, 0
*POS_FORMAT	=  0
*SCAN_AXIS	=  2Theta/Omega
*MEAS_MODE	=  Continuous Scanning
*TARGET		=  29
*XRAY_CHAR	=  K-ALPHA1
*WAVE_LENGTH1	=  1.54059
*WAVE_LENGTH2	=  1.54441
*THICKNESS	=  0, 0.000000
*MU		=  0, 0.000000
*SCAN_MODE	=  2Theta/Omega
*SPEED_DIM	=  sec./step
*XUNIT		=  deg.
*YUNIT		=  counts
*SCALE_MODE	=  1
*REP_COUNT	=  0
*SE_COUNT	=  0
*STD_MATERIAL	=  Unknown, Unknown, 0.000000, 0.000000, 0.000000, 0.000000, 0.000000, 0.000000
*LATT_CONS	=  0, Unknown, Unknown, 0.000000, 0.000000, 0.000000, 0.000000, 0.000000, 0.000000
*SEC_COUNT	=  1
*TSPEC_SIZE	=  0
*EXTRA_SIZE	=  0
*MEMO		=

*BEGIN
*GROUP		=  0
*START		=  42
*STOP		=  52
*STEP		=  0.01
*OFFSET		=  -0.163000
*SPEED		=  23.9588
*SLIT_SPEC	=  0, 0.400mm, 0.4, 0.000000
*SLIT_SPEC	=  1, 0.400mm, 0.4, 0.000000
*SLIT_SPEC	=  2, 0.400mm, 0.4, 0.000000
*KV		=  40
*MA		=  30
*LOW		=  0.000000
*HIGH		=  0.000000
*CTEMPER	=  0, 0.000000
*CTEMPER	=  1, 0.000000
*CTEMPER	=  2, 0.000000
*PAREX		=  0, 0.000000
*PAREX		=  1, 0.000000
*PAREX		=  2, 0.000000
*PAREX		=  3, 0.000000
*PAREX		=  4, 0.000000
*PAREX		=  5, 0.000000
*PAREX		=  6, 0.000000
*PAREX		=  7, 0.000000
*PAREX		=  8, 0.000000
*PAREX		=  9, 0.000000
*PAREX		=  10, 0.000000
*PAREX		=  11, 0.000000
*PAREX		=  12, 0.000000
*PAREX		=  13, 0.000000
*PAREX		=  14, 0.000000
*PAREX		=  15, 0.000000
*FULL_SCALE	=  1903340.9
*INDEX		=  0, 0, 0
*COUNT		=  1001
18, 17, 14, 8
5, 9, 5.49445, 16.5056
13.9889, 10.0111, 17, 13
9, 8, 15, 14
17.4944, 20.5056, 17, 5.49445
15.5056, 10, 12, 14
31.9889, 18.0111, 9, 20
10, 11.4944, 6.50555, 5
8, 8, 8, 12
7, 22.4944, 16.5056, 18.4944
8.50555, 23, 23.4944, 8
21.5056, 8, 10, 16.9889
10.0111, 14, 10, 17
12, 13, 15, 16.4944
15.5056, 11, 10, 22
14.4944, 16.5056, 19.4944, 13
18.5056, 10, 22, 26.4833
21.0111, 13.5056, 18.4944, 22.5056
10, 13, 12, 11
11, 25.4944, 24, 5.50555
18, 10, 14, 17.4944
28.5056, 23, 22.4944, 9
24.5056, 23, 18, 14
18, 18.4944, 24.5056, 21
17, 26, 14, 17.4944
18.5056, 9.49445, 14, 18.5056
29, 28, 18, 8
28, 32.4944, 21.5056, 21.4944
16.5056, 29, 25, 24
17, 24.4944, 24.5056, 22
24, 11.4944, 3.50555, 27
12, 13, 22, 24
16, 16.4944, 22.5056, 20
22, 26, 29.4944, 24.5056
28, 18, 29, 34
19, 13, 17, 12.4944
15.5056, 15, 17, 13
19, 22, 22.9889, 32.5056
40.5056, 19.9889, 31.0111, 21.4944
24.5056, 36, 28, 27
25.4944, 30.5056, 42, 24
22, 27.4944, 30, 19.5056
20, 36, 18.4944, 29.4944
30.5056, 22, 25, 30.4944
31.5056, 22.5056, 48.4944, 42.5056
25.4944, 28.5056, 29.4944, 39.5056
46.4944, 23, 35.4944, 32.5056
25, 20.4944, 24.5056, 35.5056
22, 22.4944, 20.5056, 28
22, 42.4944, 36.5056, 37.4944
37.9889, 45.0111, 50.5056, 23
52, 40.9778, 46.0222, 53
42.4944, 36, 31.4944, 20.0111
35.9889, 30.0111, 37.9889, 31
22.0111, 38, 50, 36
29.9889, 36.0111, 43.4944, 48.4944
42.5056, 57.4944, 62.0111, 63.9889
54.0111, 62.9889, 58.5056, 61
56, 32.4944, 51.0111, 40.9889
37.5056, 17.5056, 20.4944, 37
26.9889, 40.5167, 42.9889, 29
45.0111, 61.4944, 73, 79.5056
63.9889, 71, 79.0111, 75.4944
81, 62, 50.5056, 68
52.4833, 51.5167, 39.4944, 22.5056
26.9889, 30.0111, 35, 57
39, 52, 58.4944, 78
61.4944, 82, 93.4944, 88.5167
100.494, 92.4944, 100.011, 89.4944
104.989, 69, 51.5056, 56.9889
67.5167, 60, 56.4944, 36.0111
28, 54.9778, 53.0222, 69.4944
79.5056, 51.4944, 81.5056, 96.9778
107.011, 130, 147.494, 135.494
138.506, 150.494, 119.022, 106.494
104.989, 92.0111, 98.4944, 76
73.0111, 43, 51, 50.4944
45.4944, 57, 75, 93.9889
106.011, 114.506, 155.494, 153.494
181.506, 226.506, 195.978, 177.506
190.494, 195.011, 163.494, 137.494
101.517, 91.5056, 77.9889, 79.0111
82.4833, 65.0222, 73.9778, 73.0111
80.0111, 79.4833, 108, 148.506
164.461, 244.517, 257.494, 251
325.011, 300.494, 278, 290.528
267.483, 232.517, 231.483, 177.989
151.022, 116.011, 108.989, 91.5056
87.5056, 80.4944, 102, 115.506
139.978, 164.517, 226.978, 279
313.956, 321, 423.561, 421.483
425, 485.989, 410, 446.989
363.539, 381.944, 311.033, 250.506
189.022, 130.506, 131.483, 129
114.517, 95.4833, 164.517, 190.944
246.528, 324.989, 432.506, 465.494
582.967, 675.483, 806.506, 792.461
814.494, 784.067, 832.967, 734.539
685.978, 571.022, 567, 403.506
324.033, 253, 202.989, 177.517
210.483, 233.506, 311.967, 453
562.494, 733.967, 968.989, 1182.94
1345.97, 1621.47, 1735.56, 1804.45
1879, 1888.02, 1886.41, 1864.62
1714.59, 1491.42, 1292.49, 1108.03
936.528, 897.044, 756.45, 815.989
1040.98, 1387.43, 1852.49, 2620.88
3521.38, 4490.99, 6285.66, 8290.34
10753.6, 14827.7, 19231.7, 26061.5
35267.8, 47535.8, 66740.1, 99405.7
164124, 279085, 479376, 784825
1275508.6, 2125547.3, 3639195.5, 6699374
17550426, 35285444, 22982656, 8427239
3772168.8, 1927354.5, 1078117.1, 610449
338374, 180768, 99642, 63341.3
48431.7, 42539.1, 40764.9, 43089.3
47657.1, 53976.9, 62060.4, 70551.4
80411.9, 90499.4, 101005, 111396
121680, 131536, 140784, 149677
156716, 162375, 166134, 169040
170819, 169519, 166466, 163194
157385, 149875, 141754, 132099
122964, 111947, 101071, 89488.8
78669, 68619.7, 58426.2, 49038.7
40983.3, 32680.2, 25575.1, 19973
14563, 10695.4, 7526.89, 5311.24
3698.04, 2697.98, 2275.65, 2239.92
2517, 2970.53, 3581.88, 4061.31
4603.38, 4969.16, 5233.47, 5392.46
5174.98, 5030.58, 4665.99, 4288.58
3712.65, 3199.01, 2637.65, 2042.02
1585.47, 1175.07, 846.55, 662.483
541.033, 508.517, 589.978, 731.461
897.506, 1041.98, 1325.48, 1514.41
1596.98, 1770.04, 1936.97, 1889.55
1814.45, 1806.52, 1689.54, 1535.49
1392.07, 1130.02, 890.517, 672.033
608.483, 412.011, 327.528, 267.978
200.022, 222.506, 283.989, 331.472
473.494, 586.022, 632.989, 786.461
820.989, 943.506, 931.989, 921.483
954.517, 879.517, 817.011, 722.494
652.528, 539.011, 440.011, 370.483
287, 204.528, 158, 142.506
149.494, 140.011, 191.967, 225.033
301.978, 333.989, 395.989, 409
492.506, 489.506, 529.494, 558.483
487.033, 485.978, 429.483, 370.539
334, 299.494, 199.011, 191.517
189, 106.506, 110.989, 74.0111
86.4833, 116.494, 129.506, 165.494
186, 241, 235.506, 256.989
339.011, 275.989, 304.989, 300
289.022, 268.989, 294.011, 218.483
199.033, 168.483, 134.506, 114.506
91.5056, 97.9889, 48.5167, 57
74.4944, 92.4944, 89.0111, 109.989
114.011, 117.494, 143.978, 146.506
191.506, 181.506, 195.989, 182
177.506, 133.011, 127.506, 145
116.483, 220.506, 80.5056, 55.4944
88.0111, 47.9778, 53.0222, 66
41, 45.9889, 87.5056, 72.9889
88.5056, 109.494, 126, 112.989
104.011, 108.011, 128.989, 128
107.011, 102.472, 88.0222, 78
86.5056, 66.4833, 52.0222, 49.4944
41.5056, 32, 40.9889, 39.5056
30, 62.4944, 62.0111, 60.4944
59.4944, 86, 83, 83.5056
78, 83.4944, 92.9889, 67.5167
74, 58.4944, 61.5056, 51
63.4944, 24.0111, 38.4944, 22.5056
23, 33, 29.4944, 48.5056
34, 54.9889, 42.4944, 48.0111
45.4944, 53.0111, 62, 66.9889
53.0111, 37.4944, 41.5056, 34.4944
33, 38.9889, 35.5167, 36.4944
31.5056, 24, 30.9889, 35.5056
16, 19.5056, 33, 24.4944
30.4944, 41.0111, 28, 44.4944
42.5056, 39, 41.4944, 28.5056
34.4944, 35, 35.4944, 36
28.0111, 20, 27.4944, 15.5056
11.4944, 20.5056, 28, 20.9889
31.0111, 19, 25.4944, 17
23, 17.5056, 11, 32
13, 26.4944, 24, 28.5056
25, 30, 26.4944, 19.5056
28, 23.4944, 29, 19.5056
23, 27.4833, 23.5167, 21.9889
9.50555, 24, 12.4944, 24
17.5056, 20.5056, 17, 34
19, 25.4944, 32, 8.50555
26, 16, 14, 10.4944
16.5056, 11, 10, 19
12.4944, 12.5056, 11, 14
9, 17, 19.4944, 15.5056
21, 27, 12.4944, 21.5056
25, 7, 17, 13
20, 15, 14.4944, 12.4944
12.0111, 10, 8, 6
19.4944, 15, 12, 21.5056
6, 13, 13, 16.9889
9, 17.0111, 15, 18
20, 8, 8, 7.49445
12.5056, 8.49445, 14.5056, 10
5, 10, 12.4944, 5.50555
18, 10, 15, 3.49445
21, 21.5056, 12, 10
16, 5.49445, 10.5056, 8
13.9889, 17.5056, 9.50555, 6
13.9889, 13.5056, 9.50555, 14
14, 6, 5, 3
7.49445, 7.50555, 5, 6
15, 15, 7, 12
6, 7, 12, 12
11, 9, 8, 14
7, 9.98889, 13.5056, 11.5056
9, 5, 4, 12
10, 7, 15, 8.49445
1.50555, 13.4944, 5.50555, 14
6, 15, 7, 7
8, 2.49445, 6.50555, 13
2, 4, 9.49445, 1.50555
4, 7, 8, 6
10.4944, 8.50555, 8, 10
6, 9, 14, 10
5, 4, 12, 15
12.4944, 6.50555, 10, 9
9, 14, 7.49445, 10.5056
4, 7, 7, 10
0.494446, 11.5056, 11, 1
5, 5, 16.4944, 7.50555
5, 5, 5.49445, 8.50555
9, 6, 8, 12
4, 9.98889, 7.01111, 3
2, 0.000000, 3, 13
1.98889, 13.0111, 6, 9
2, 4, 1, 5
8, 3, 5, 6
1.98889, 5.01111, 4, 2
5, 5, 11, 3
8, 15, 8.49445, 4.50555
5, 15, 7.49445, 6
2.50555, 6, 6.49445, 0.505554
8, 12, 6, 4
7.98889, 12.0111, 3, 0.000000
7.49445, 10.5056, 11, 9
9, 2, 7, 4
5
*END

*EOF

File: 22123_LCOT_XRR_2-Theta_Omega.asc
*TYPE		=  Raw
*CLASS		=  ASCII CLASS
*SAMPLE		=
*COMMENT	=
*FNAME		=  22123_LCOT_XRR_2-Theta_Omega.asc
*DATE		=  17-Aug-22 11:53

*GROUP_COUNT	=  1
*GONIO		=  SmartLab(In-plane), 0.000000
*ATTACHMENT	=  Z-Phi Stage
*ASC		=  0, 0, 0.000000, 0.000000
*I_MONOCHRO	=  Ge(220)x2, 0.000000
*FILTER		=  None
*C_MONOCHRO	=  None, 0.000000
*SLIT_NAME	=  0, Incident slit
*SLIT_NAME	=  1, Receiving slit # 1
*SLIT_NAME	=  2, Receiving slit # 2
*COUNTER	=  D/teX Ultra 250, 0
*POS_FORMAT	=  0
*SCAN_AXIS	=  2Theta/Omega
*MEAS_MODE	=  Continuous Scanning
*TARGET		=  29
*XRAY_CHAR	=  K-ALPHA1
*WAVE_LENGTH1	=  1.54059
*WAVE_LENGTH2	=  1.54441
*THICKNESS	=  0, 0.000000
*MU		=  0, 0.000000
*SCAN_MODE	=  2Theta/Omega
*SPEED_DIM	=  sec./step
*XUNIT		=  deg.
*YUNIT		=  counts
*SCALE_MODE	=  1
*REP_COUNT	=  0
*SE_COUNT	=  0
*STD_MATERIAL	=  Unknown, Unknown, 0.000000, 0.000000, 0.000000, 0.000000, 0.000000, 0.000000
*LATT_CONS	=  0, Unknown, Unknown, 0.000000, 0.000000, 0.000000, 0.000000, 0.000000, 0.000000
*SEC_COUNT	=  1
*TSPEC_SIZE	=  0
*EXTRA_SIZE	=  0
*MEMO		=

*BEGIN
*GROUP		=  0
*START		=  0.4
*STOP		=  4.5
*STEP		=  0.01
*OFFSET		=  0.000000
*SPEED		=  23.9588
*SLIT_SPEC	=  0, 1.000mm, 1, 0.000000
*SLIT_SPEC	=  1, 1.000mm, 1, 0.000000
*SLIT_SPEC	=  2, 1.000mm, 1, 0.000000
*KV		=  40
*MA		=  30
*LOW		=  0.000000
*HIGH		=  0.000000
*CTEMPER	=  0, 0.000000
*CTEMPER	=  1, 0.000000
*CTEMPER	=  2, 0.000000
*PAREX		=  0, 0.000000
*PAREX		=  1, 0.000000
*PAREX		=  2, 0.000000
*PAREX		=  3, 0.000000
*PAREX		=  4, 0.000000
*PAREX		=  5, 0.000000
*PAREX		=  6, 0.000000
*PAREX		=  7, 0.000000
*PAREX		=  8, 0.000000
*PAREX		=  9, 0.000000
*PAREX		=  10, 0.000000
*PAREX		=  11, 0.000000
*PAREX		=  12, 0.000000
*PAREX		=  13, 0.000000
*PAREX		=  14, 0.000000
*PAREX		=  15, 0.000000
*FULL_SCALE	=  93322.7
*INDEX		=  0, 0, 0
*COUNT		=  411
1485569, 1519659.5, 1548511, 1575801
1606942.5, 1632623, 1655993, 1682977
1707349, 1729542, 1747266.5, 1769349.5
1784815, 1801239.5, 1813282, 1823227.5
1834544.5, 1836768.5, 1839339, 1836817
1827494.5, 1813989.5, 1794679, 1766688.5
1730536.5, 1685419.5, 1622973.1, 1552015.6
1466533.1, 1369298.6, 1264033.6, 1154486.6
1040651.6, 942399, 849294, 767056
694120, 626705, 561859, 503988
453243, 408540, 372047, 344951
322764, 303431, 286034, 269188
251859, 231537, 213195, 195209
178543, 164434, 154728, 146486
140456, 135856, 133692, 129769
125391, 120633, 114567, 107734
100803, 92654, 86370.5, 80758.5
76154.5, 72120.5, 69630.5, 69070
67421, 66846.5, 66515.5, 64954
63892.5, 62379.5, 59134.5, 55902.5
52734.5, 49666, 46455.5, 43491.5
41175, 39348.5, 38247.5, 37413
37102.5, 36986, 37047.5, 36909
36420.5, 36088.5, 34783, 33829.5
32423.5, 30485, 29089, 26947.5
25557, 24210.5, 23079.5, 22458
22020, 21854.5, 21659.5, 22111
21844, 21855, 21771.5, 21378.5
20957.5, 20272.5, 19677.5, 18558.5
17640.5, 16654, 15690.5, 15013.5
14548, 13830.5, 13597, 13776.5
13450, 13781.5, 13819, 13690
13870, 13569, 13465, 13167.5
12561.5, 11983, 11417.5, 10935.5
10313.5, 9842, 9570, 9290.5
9000.5, 8953, 8807.5, 8975
8949.5, 8993.5, 8940, 8830.5
8887, 8872, 8462, 8318.5
7946, 7557, 7199, 6857
6662.5, 6409, 6286.5, 6006
6045, 6019, 6032.5, 5836.5
5957.5, 6134, 5890, 6116.5
5920, 5838.5, 5642.5, 5429.5
5184.5, 5041.5, 4734, 4512.5
4618, 4326, 4237, 4160.5
4061, 3994, 4122.5, 4204.5
4189.5, 4176.5, 4253.5, 4104.5
4104.5, 3977.5, 3863.5, 3710
3514.5, 3431.5, 3294, 3229
3012, 2933, 2936, 2975
2927, 2933, 2918.5, 2950
3041.5, 2842, 2871, 2896.5
2818, 2793, 2664.5, 2561
2536.5, 2472.5, 2336.5, 2220
2213.5, 2239.5, 2074.5, 2157
2044, 2160, 2218, 2151
2146, 2118.5, 2099.5, 2063.5
2068, 2043.5, 1977, 1899.5
1876, 1828.5, 1708.5, 1671.5
1694.5, 1585.5, 1564, 1518.5
1570, 1529, 1626, 1551
1554, 1561, 1521, 1481
1494.5, 1503, 1364.5, 1422
1390, 1340.5, 1317, 1252.5
1205, 1293, 1212.5, 1191
1185.5, 1163.5, 1327.5, 1179.5
1212, 1256, 1188, 1240.5
1179.5, 1135, 1109, 1046.5
1046, 1032.5, 1036, 951.5
921, 969.5, 948, 883
911.499, 954.001, 920.499, 888
981.5, 866.5, 874.5, 931.5
883.5, 917, 818.5, 870.5
823.5, 857, 870.5, 754
805, 761.501, 775, 737
740, 756.5, 750.5, 743.5
727.5, 742.999, 731.5, 760
701.5, 765.5, 753.5, 699
666.5, 701.5, 645, 671
706.5, 592.5, 641, 618
605, 577, 634, 620.5
633, 633, 603, 584.5
585, 547, 551.5, 611
546, 615, 563.5, 558.499
530.501, 535, 536, 536.5
550, 521.5, 531.5, 490
470.5, 528.5, 533, 511
556.5, 465, 517, 515.5
554.5, 503, 503.5, 465
461, 458.5, 482.5, 430.5
403.5, 460, 459.5, 457.5
435.5, 469, 441.5, 470.5
447.5, 490, 425, 381
434.5, 398, 452, 457
425, 431.5, 418, 429
413, 413, 416, 398.5
370, 375.5, 415, 430.5
395, 404.5, 400.5, 418
397.5, 404.5, 374.5, 367.5
386, 351, 390, 381
374.5, 382, 341.5, 374
375.5, 374, 379.5, 346
342, 394.5, 394
*END

*EOF