Folder: Analysis/XRD:XRR/LCO/22129_LCOT

File: 22129_LCOT_XRD_200_2-Theta_Omega.asc
*TYPE		=  Raw
*CLASS		=  ASCII CLASS
*SAMPLE		=
*COMMENT	=
*FNAME		=  22129_LCOT_XRD_200_2-Theta_Omega.asc
*DATE		=  26-Aug-22 16:41

*GROUP_COUNT	=  1
*GONIO		=  SmartLab(In-plane), 0.000000
*ATTACHMENT	=  Z-Phi Stage
*ASC		=  0, 0, 0.000000, 0.000000
*I_MONOCHRO	=  Ge(220)x2, 0.000000
*FILTER		=  None
*C_MONOCHRO	=  None, 0.000000
*SLIT_NAME	=  0, Incident slit
*SLIT_NAME	=  1, Receiving slit # 1
*SLIT_NAME	=  2, Receiving slit # 2
*COUNTER	=  D/teX Ultra 250, 0
*POS_FORMAT	=  0
*SCAN_AXIS	=  2Theta/Omega
*MEAS_MODE	=  Continuous Scanning
*TARGET		=  29
*XRAY_CHAR	=  K-ALPHA1
*WAVE_LENGTH1	=  1.54059
*WAVE_LENGTH2	=  1.54441
*THICKNESS	=  0, 0.000000
*MU		=  0, 0.000000
*SCAN_MODE	=  2Theta/Omega
*SPEED_DIM	=  sec./step
*XUNIT		=  deg.
*YUNIT		=  counts
*SCALE_MODE	=  1
*REP_COUNT	=  0
*SE_COUNT	=  0
*STD_MATERIAL	=  Unknown, Unknown, 0.000000, 0.000000, 0.000000, 0.000000, 0.000000, 0.000000
*LATT_CONS	=  0, Unknown, Unknown, 0.000000, 0.000000, 0.000000, 0.000000, 0.000000, 0.000000
*SEC_COUNT	=  1
*TSPEC_SIZE	=  0
*EXTRA_SIZE	=  0
*MEMO		=

*BEGIN
*GROUP		=  0
*START		=  42
*STOP		=  52
*STEP		=  0.01
*OFFSET		=  -0.034100
*SPEED		=  23.9588
*SLIT_SPEC	=  0, 0.400mm, 0.4, 0.000000
*SLIT_SPEC	=  1, 0.400mm, 0.4, 0.000000
*SLIT_SPEC	=  2, 0.400mm, 0.4, 0.000000
*KV		=  40
*MA		=  30
*LOW		=  0.000000
*HIGH		=  0.000000
*CTEMPER	=  0, 0.000000
*CTEMPER	=  1, 0.000000
*CTEMPER	=  2, 0.000000
*PAREX		=  0, 0.000000
*PAREX		=  1, 0.000000
*PAREX		=  2, 0.000000
*PAREX		=  3, 0.000000
*PAREX		=  4, 0.000000
*PAREX		=  5, 0.000000
*PAREX		=  6, 0.000000
*PAREX		=  7, 0.000000
*PAREX		=  8, 0.000000
*PAREX		=  9, 0.000000
*PAREX		=  10, 0.000000
*PAREX		=  11, 0.000000
*PAREX		=  12, 0.000000
*PAREX		=  13, 0.000000
*PAREX		=  14, 0.000000
*PAREX		=  15, 0.000000
*FULL_SCALE	=  3633596
*INDEX		=  0, 0, 0
*COUNT		=  1001
23, 6, 24, 30
16, 12, 22, 16
34, 19.4944, 13.5056, 11.9889
23.0111, 10.4944, 33, 43.5056
19, 21, 32, 39.4944
32.4944, 44.0111, 27, 41.4944
33.4944, 57.4722, 36.5278, 38.0111
53, 45, 41, 21
23, 40.9889, 57.5056, 38
29.5056, 29, 55.4722, 44.0222
47.4944, 38.0111, 26.4944, 28.5056
34, 25.4944, 45.5056, 33
31.4944, 22, 41.9889, 52.0111
39.4944, 34.5056, 30, 42.5056
29, 20.4944, 35.4944, 24.0111
27.4944, 36.4944, 27.0111, 31
22, 24.4944, 33.5056, 32.4944
22.5056, 38, 36, 34
29.4944, 24.5056, 24, 25
23.4944, 27.5056, 19.4944, 38.5056
38.4944, 33.5056, 45.4944, 35
33.5056, 48.4944, 28.5056, 43
53.9889, 35.0111, 54.4944, 39
38, 54, 56, 58.4944
55.0111, 47, 53.9889, 49.0111
56.4833, 71.5167, 58.4944, 76
61.9889, 73.5056, 72.5056, 38.4944
60.4944, 76.0111, 75.5056, 73
67.4944, 80.9889, 65.0111, 48.5056
49, 69, 63.9889, 74.5056
68.5056, 50.4833, 45.5167, 62
58.4944, 47.5056, 58, 46.9889
45.0111, 60.9889, 39.5056, 43.5056
42.9889, 36.0111, 50.9889, 41.5056
44.5056, 28, 36, 39
22, 24.4944, 31, 30.5056
26, 28.9889, 56.5056, 51
39.5056, 37, 53.9889, 47.5056
34, 44, 50, 68.4944
48.5056, 72.5056, 57.4944, 64.4944
69.0111, 74.4944, 60, 75.5056
68.4833, 84.5056, 95, 91.4944
83.5167, 108.989, 89.5056, 100
105.494, 93.4833, 120.011, 108.494
120.506, 116, 123.517, 119.989
108, 123, 100.011, 102.989
102.506, 127.989, 111.506, 108
105.989, 120.517, 119.494, 116
128.506, 93.5056, 90.4944, 102.494
84.5056, 95.4833, 78.0111, 73
86, 95, 86.0111, 83.9889
65.0111, 59, 61.9889, 54.0111
47, 56, 73.9889, 59.0111
37.4944, 53.4944, 50.0111, 49
40, 61.4833, 57.0111, 52.9889
45.5167, 40, 51.4944, 60.4944
86.0111, 81.4944, 48.5056, 76.4944
82.5056, 94.9889, 115.506, 73.9889
107.494, 126.011, 102.011, 134.472
167.517, 140.011, 151.989, 164.989
167.022, 145.989, 175.472, 167.528
169.011, 196.978, 203.506, 213.472
210.528, 173.472, 216.539, 232
208.472, 214.978, 248.506, 212.528
205.494, 223.528, 253.494, 203.472
223, 233.494, 250.517, 190
229, 175.517, 173.461, 204.528
160.506, 193.506, 164.978, 163
185.528, 139.989, 125, 130.506
135.989, 119.011, 115.483, 89.0222
96.4833, 89.0111, 94, 66.5056
85.9889, 76.0111, 59.9889, 66.5056
71, 61.4944, 72.0111, 71.4833
66.5056, 72.5056, 77.4944, 69.9778
107.011, 112.011, 100.011, 119.494
145.494, 169.483, 159, 182.011
196.011, 210.494, 225, 238.978
285.022, 299.472, 292, 302.978
350.483, 357.539, 379.989, 431.483
399.022, 428.978, 496.022, 461.472
520.517, 508.506, 519.506, 508.978
501.494, 543.506, 579.506, 570.506
548.989, 545.978, 527.55, 588.494
612.45, 526.056, 576.461, 537.528
519.989, 552.044, 436.956, 519.517
496, 517, 436, 461.989
457.989, 421.517, 361.539, 363.989
319.494, 326.461, 334.561, 273.472
268.506, 240.506, 217.989, 196.011
175.011, 195.494, 133, 124.517
130.989, 145.989, 137.494, 140.011
99, 117, 126.517, 170.483
161, 183, 182.483, 245.011
287.494, 278.472, 358.494, 406.044
405.967, 519.483, 527.022, 616.439
683, 763.022, 816.517, 933.956
982.989, 1015.48, 1176.48, 1237.02
1353.02, 1433.98, 1468.97, 1649.98
1725.49, 1807.94, 1930.96, 2079.99
2135.66, 2270.41, 2457.93, 2505.96
2621.09, 2613.94, 2885.99, 2888.56
3009.9, 3085.91, 3090.59, 3307.53
3221.03, 3447.88, 3505.04, 3601.51
3638.03, 3667.91, 3824.97, 3781.54
3952.45, 3965.01, 3864.51, 3867.07
3909.42, 4056.02, 4062.99, 4103.51
4092.45, 4325.55, 4407.49, 4506.89
4553.65, 4738.93, 4907.43, 5026.94
5668.37, 6295.56, 7150.46, 8217.25
10344.7, 13458.2, 18855.2, 26858.4
40826, 64804.3, 105495, 169124
303813, 713425, 2034772.6, 7088928.5
47661400, 58539436, 26763470, 4033997.8
1133229.4, 644768, 443111, 333012
251374, 179138, 130032, 107138
94041.1, 83825.7, 75291.5, 69812.8
65027.4, 60932.6, 58129.6, 55005.5
52689.9, 50914.9, 48658, 47104.3
45815.8, 44660.4, 43139.1, 42546.1
40812.7, 40375.7, 39606.2, 39009.7
37911.6, 37313.6, 36365.6, 35939.1
35302.9, 34382.7, 33931, 33377
32677.2, 31985.5, 31805.7, 31019
30643.1, 30010.8, 29351.6, 28616.9
28418.2, 27896, 27217.2, 26794.9
26401.4, 25598.1, 24959.2, 24506.4
24086.6, 23258, 22679.4, 22117.6
21491.6, 20743, 20267.1, 19897.6
19220.2, 18449.5, 17865.5, 17359.5
16740.8, 16309.1, 15581.7, 14939
14319, 13595.2, 13338.5, 12368.4
11977.7, 11313.1, 11058.9, 10611.6
10041, 9329.12, 9029.49, 8284.07
8001.14, 7628.62, 7040.42, 6693.62
6095.56, 5741.98, 5299.55, 4961.56
4524.56, 4142.59, 3904.45, 3452.53
3298.06, 2874.54, 2840.01, 2462.53
2256.98, 1958.09, 1733.48, 1603.02
1344.02, 1279.55, 1056.99, 977.528
838.989, 730.022, 657.461, 579.044
464.539, 421.989, 340.022, 251.978
273, 263.517, 261.506, 236.494
231.011, 245.483, 221.517, 260.483
249.517, 295.989, 301.494, 359
417.506, 409.967, 502.483, 505.55
497.978, 578.472, 637.539, 628.956
698.044, 717.472, 763.506, 837.944
857.033, 848.011, 856.461, 862.011
916.022, 939.933, 913.089, 914.978
980.989, 939.528, 937.956, 927.506
906.956, 924.561, 896.967, 915.011
882.528, 846.494, 820.45, 836.033
798.517, 745.506, 732.517, 700.967
746.483, 680.044, 640.517, 621.494
577, 513.022, 502.978, 526.011
476.989, 440.011, 402.494, 332.011
312.506, 317.989, 317.011, 287.517
251.494, 232.989, 196.517, 169.483
200.506, 141.011, 148, 123
115.989, 109.022, 103.494, 102.011
82.4833, 71.5056, 74.5056, 78.4944
96, 82.5056, 69.5056, 68.4944
74.4833, 86.0222, 89.9778, 94.4944
110.011, 134.483, 134.011, 156.011
160, 169.978, 185.517, 152
162.506, 193.494, 192, 204.494
205.517, 221.483, 222.483, 209.517
234, 245.494, 270.506, 228.011
259, 267.483, 256.517, 250.45
264.033, 251.506, 242.494, 212
248.011, 268, 222.967, 260.011
271.022, 228.494, 213.494, 207
177, 184.506, 216.506, 185.506
172.494, 147.494, 174.506, 146
156.011, 135, 131.494, 127.494
107.506, 98.0111, 107.989, 79.5056
76, 82.4944, 105, 74.0111
68.4833, 69.5056, 65.0111, 56.4944
64, 65.4944, 64, 53.5056
45.5056, 54.9889, 52, 50.0111
40, 31, 53.4944, 55.4944
41.0111, 56.4944, 78.5056, 57.9889
75.5056, 56, 73, 64
75, 74.9889, 70.5056, 65.0111
51.9889, 70.5056, 92.9889, 115.517
69, 83.9889, 92.5056, 81
66.5056, 72.9778, 92.0222, 92.4944
81, 102.494, 109.011, 96
104.989, 65, 75.4944, 84
84.0111, 68.5056, 58.9889, 55.4944
94.0111, 67, 90, 80.5056
51.4944, 81.4833, 70.0222, 76
64, 49, 55.4944, 73.5056
52.4833, 63.5167, 48.9889, 54.0111
50, 43.9889, 47.5056, 34.5056
42.9889, 47.9889, 33.5167, 27
56.5056, 29, 34.4944, 39.5056
21.4833, 20.0111, 25.4944, 38.0111
24.9889, 28.0111, 23.4944, 39.9889
33.5167, 46, 19.4944, 33
34.5056, 44, 28.4944, 25
37, 27.5056, 36.4944, 35.5056
27, 27.9889, 33, 32
32.0111, 35.4833, 44.5056, 44.0111
30, 34, 30.4944, 29
59, 35.5056, 39, 25
31.4944, 45.5056, 43.9889, 36.0111
39, 38, 39, 31
36.9889, 41.5056, 44.5056, 25
20, 21.4944, 36, 32.5056
26, 29.4944, 19.4944, 30.0111
33.4944, 21.5056, 28, 24.4944
18.5056, 21, 24, 20
25, 6, 27, 24
40.4833, 28, 25.5167, 18
24, 32.4944, 21.5056, 13
18.4944, 15.5056, 26, 21
9, 24, 15, 6
11, 22.4944, 17.5056, 20
23, 25, 14, 15.4944
21.5056, 9, 24, 16.4944
30, 23.5056, 25, 20.9889
51.0111, 20, 19, 7
15, 24.9889, 16.0111, 20
25, 32, 14, 15
18, 12, 22, 16
7.49445, 12.5056, 19, 17
8, 9.49445, 13.4944, 16.0111
7, 14, 17.4944, 17
23.5056, 2, 12.4944, 8.50555
20, 7, 13, 14.4944
13.5056, 7, 16, 17
14.9889, 23.5056, 6.50555, 14.4944
13.5056, 17, 9.49445, 22.5056
8, 17.4944, 19.5056, 15
6, 16, 12, 11
10.9889, 11.0111, 15, 11
24, 13, 12, 17.4944
11.5056, 14, 13, 12
4, 14, 7, 9
13.4944, 10.5056, 6, 9
3.49445, 5.50555, 10, 6
12, 13, 0.000000, 11
7.49445, 7.50555, 5, 2
7, 14, 14, 10
16, 8, 5, 15
14, 11, 12, 3.49445
4.50555, 2.49445, 15.5056, 7
2, 8, 10, 8
11, 13, 4, 3.49445
9.50555
*END

*EOF

File: 22129_LCOT_XRR_2-Theta_Omega.asc
*TYPE		=  Raw
*CLASS		=  ASCII CLASS
*SAMPLE		=
*COMMENT	=
*FNAME		=  22129_LCOT_XRR_2-Theta_Omega.asc
*DATE		=  29-Aug-22 12:38

*GROUP_COUNT	=  1
*GONIO		=  SmartLab(In-plane), 0.000000
*ATTACHMENT	=  Z-Phi Stage
*ASC		=  0, 0, 0.000000, 0.000000
*I_MONOCHRO	=  Ge(220)x2, 0.000000
*FILTER		=  None
*C_MONOCHRO	=  None, 0.000000
*SLIT_NAME	=  0, Incident slit
*SLIT_NAME	=  1, Receiving slit # 1
*SLIT_NAME	=  2, Receiving slit # 2
*COUNTER	=  D/teX Ultra 250, 0
*POS_FORMAT	=  0
*SCAN_AXIS	=  2Theta/Omega
*MEAS_MODE	=  Continuous Scanning
*TARGET		=  29
*XRAY_CHAR	=  K-ALPHA1
*WAVE_LENGTH1	=  1.54059
*WAVE_LENGTH2	=  1.54441
*THICKNESS	=  0, 0.000000
*MU		=  0, 0.000000
*SCAN_MODE	=  2Theta/Omega
*SPEED_DIM	=  sec./step
*XUNIT		=  deg.
*YUNIT		=  counts
*SCALE_MODE	=  1
*REP_COUNT	=  0
*SE_COUNT	=  0
*STD_MATERIAL	=  Unknown, Unknown, 0.000000, 0.000000, 0.000000, 0.000000, 0.000000, 0.000000
*LATT_CONS	=  0, Unknown, Unknown, 0.000000, 0.000000, 0.000000, 0.000000, 0.000000, 0.000000
*SEC_COUNT	=  1
*TSPEC_SIZE	=  0
*EXTRA_SIZE	=  0
*MEMO		=

*BEGIN
*GROUP		=  0
*START		=  0.4
*STOP		=  4.5
*STEP		=  0.01
*OFFSET		=  -0.012700
*SPEED		=  20.6484
*SLIT_SPEC	=  0, 1.000mm, 1, 0.000000
*SLIT_SPEC	=  1, 1.000mm, 1, 0.000000
*SLIT_SPEC	=  2, 1.000mm, 1, 0.000000
*KV		=  40
*MA		=  30
*LOW		=  0.000000
*HIGH		=  0.000000
*CTEMPER	=  0, 0.000000
*CTEMPER	=  1, 0.000000
*CTEMPER	=  2, 0.000000
*PAREX		=  0, 0.000000
*PAREX		=  1, 0.000000
*PAREX		=  2, 0.000000
*PAREX		=  3, 0.000000
*PAREX		=  4, 0.000000
*PAREX		=  5, 0.000000
*PAREX		=  6, 0.000000
*PAREX		=  7, 0.000000
*PAREX		=  8, 0.000000
*PAREX		=  9, 0.000000
*PAREX		=  10, 0.000000
*PAREX		=  11, 0.000000
*PAREX		=  12, 0.000000
*PAREX		=  13, 0.000000
*PAREX		=  14, 0.000000
*PAREX		=  15, 0.000000
*FULL_SCALE	=  389514
*INDEX		=  0, 0, 0
*COUNT		=  411
5278050, 5391187, 5504128, 5617054.5
5719663.5, 5823470, 5929174, 6012803.5
6111202.5, 6198393, 6277455, 6360619.5
6430750.5, 6489542, 6546654, 6594025
6632385.5, 6655119, 6663951, 6669292
6647684, 6607748.5, 6545695.5, 6457700.5
6337312, 6192814.5, 6004037, 5790830.5
5563173, 5325884.5, 5088640, 4843293.5
4603295.5, 4360494.5, 4116485.3, 3868977.3
3623472.8, 3384009.8, 3139356.3, 2896888.8
2665325.3, 2438599.3, 2220043.8, 2011510.3
1817680.8, 1632125.6, 1459729.6, 1301846.6
1159051.1, 1027020.6, 909329, 804680
713537, 632813, 566342, 506125
456892, 416380, 383002, 356978
336695, 319979, 307034, 298905
293606, 290666, 288310, 287761
289078, 287832, 288824, 289034
290024, 288321, 287361, 285652
283593, 279380, 274870, 270909
264149, 257468, 250850, 242498
233393, 225623, 216504, 207205
197515, 186710, 177718, 167271
157442, 148237, 138737, 130070
121249, 113587, 105871, 98244
91245, 85539, 79518.5, 74285
69471.5, 65572.5, 61684.5, 58239
55708, 53095, 51228, 49980
49050, 47858.5, 47531.5, 46910.5
46844.5, 47236, 47478.5, 47759
47986.5, 48803.5, 49058, 49684.5
50473.5, 50843.5, 50903, 51571.5
51326.5, 51338, 51392.5, 51639
50955, 51291, 50697, 49612
49465, 48607, 47454.5, 46374
45543, 43800.5, 42917, 41220.5
39556.5, 38494, 37397, 35613
34056.5, 32062.5, 30743, 29295.5
27927, 26311, 25125.5, 23663
22337, 21064.5, 19966, 18769
17843.5, 17031.5, 16117, 15500.5
14865.5, 14322, 13917, 13150
12690.5, 12485.5, 12268, 12300.5
12007.5, 11944.5, 11956, 12122.5
12142, 12343.5, 12219.5, 12506.5
12671, 12615.5, 12746.5, 12781
13228, 13118, 13180, 13263.5
13256, 13640.5, 13276, 13511
13484.5, 13126, 13187.5, 12960
12988.5, 12664, 12354, 12063.5
11873, 11691, 11171, 11064
10888.5, 10431.5, 9868.5, 9764.5
9338.5, 9035.5, 8664, 8399
7837, 7574.5, 7250, 6965.5
6814, 6267.5, 6028, 5793
5502.5, 5328, 5182.5, 4889
4627.5, 4427, 4378, 4337.5
4192, 4104, 4039, 3997.5
3957.5, 3988, 3864.5, 3995.5
3818, 3967.5, 4059.5, 3875.5
4004, 3980, 4094.5, 4037.5
4162, 4149, 4160.5, 4281
4229.5, 4236.5, 4405, 4285.5
4219.5, 4154, 4156.5, 4129.5
4195.5, 4096, 4096, 3924.5
3999.5, 3932.5, 3749, 3827
3676.5, 3609.5, 3448.5, 3294
3285, 3157.5, 3029, 2943.5
2802.5, 2735.5, 2689.5, 2533.5
2564.5, 2405, 2310.5, 2293.5
2188, 2080, 2061.5, 1915.5
1881.5, 1807.5, 1764.5, 1745
1738, 1665.5, 1573.5, 1619.5
1536.5, 1526, 1553, 1569.5
1520.5, 1586, 1600.5, 1569
1515.5, 1616, 1584.5, 1621
1572, 1503.5, 1547.5, 1606
1657, 1667, 1686, 1578.5
1678.5, 1627.5, 1627.5, 1673.5
1641, 1660, 1652, 1578.5
1669, 1547.5, 1558, 1582
1516.5, 1485, 1497, 1510
1503.5, 1365.5, 1415.5, 1375
1277.5, 1332.5, 1300, 1230
1149, 1169, 1168.5, 1127
1029.5, 1035, 1037, 995.5
1001, 961, 919.5, 879.5
909.5, 862.5, 905.5, 827
833, 787.5, 859.5, 809
826.5, 781, 796.5, 794.5
755.5, 803.5, 783, 760
757.5, 807, 842.5, 758.999
767.001, 823.999, 809, 817
883, 865.501, 879, 834.5
815, 877, 921.5, 807
866.5, 904, 838, 835
800.5, 868.5, 852, 868
851, 842.5, 786.5, 747
746.5, 740.5, 790.5, 747.5
770.5, 703.5, 681.5, 687.5
724, 686, 596, 613
647.5, 648.501, 635, 581.5
629.5, 544.5, 568.5
*END

*EOF