Folder: Analysis/XRD:XRR/LCO/22127_LCOS

File: 22127_LCOS_XRD_200.csv
#twotheta, yobs, ycal, bkg, diff
42.0,18.5056,1.0,1.0,1.0
42.04,15.0,1.0,1.0,1.0
42.08,10.0,1.0,1.0,1.0
42.12,5.5056,1.0,1.0,1.0
42.16,16.0,1.0,1.0,1.0
42.2,20.0,1.0,1.0,1.0
42.24,7.5056,1.0,1.0,1.0
42.28,22.0,1.0,1.0,1.0
42.32,14.9889,1.0,1.0,1.0
42.36,21.0,1.0,1.0,1.0
42.4,22.5056,1.0,1.0,1.0
42.44,13.0,1.0,1.0,1.0
42.48,26.4944,1.0,1.0,1.0
42.52,12.0,1.0,1.0,1.0
42.56,19.4944,1.0,1.0,1.0
42.6,22.0,1.0,1.0,1.0
42.64,15.5056,1.0,1.0,1.0
42.68,14.0,1.0,1.0,1.0
42.72,11.0,1.0,1.0,1.0
42.76,15.5056,1.0,1.0,1.0
42.8,21.4944,1.0,1.0,1.0
42.84,8.4944,1.0,1.0,1.0
42.88,26.0,1.0,1.0,1.0
42.92,16.5056,1.0,1.0,1.0
42.96,22.0,1.0,1.0,1.0
43.0,18.9889,1.0,1.0,1.0
43.04,47.0,1.0,1.0,1.0
43.08,25.0111,1.0,1.0,1.0
43.12,32.0,1.0,1.0,1.0
43.16,33.9889,1.0,1.0,1.0
43.2,34.4944,1.0,1.0,1.0
43.24,32.0,1.0,1.0,1.0
43.28,26.9778,1.0,1.0,1.0
43.32,42.0111,1.0,1.0,1.0
43.36,21.5056,1.0,1.0,1.0
43.4,15.0,1.0,1.0,1.0
43.44,23.0,1.0,1.0,1.0
43.48,30.5056,1.0,1.0,1.0
43.52,25.0,1.0,1.0,1.0
43.56,12.0,1.0,1.0,1.0
43.6,24.0,1.0,1.0,1.0
43.64,33.0,1.0,1.0,1.0
43.68,33.0111,1.0,1.0,1.0
43.72,35.0,1.0,1.0,1.0
43.76,39.4944,1.0,1.0,1.0
43.8,25.9889,1.0,1.0,1.0
43.84,56.5056,1.0,1.0,1.0
43.88,50.0,1.0,1.0,1.0
43.92,47.5056,1.0,1.0,1.0
43.96,37.5056,1.0,1.0,1.0
44.0,47.0,1.0,1.0,1.0
44.04,27.0,1.0,1.0,1.0
44.08,20.0,1.0,1.0,1.0
44.12,31.0,1.0,1.0,1.0
44.16,31.5056,1.0,1.0,1.0
44.2,32.0,1.0,1.0,1.0
44.24,20.5056,1.0,1.0,1.0
44.28,43.0,1.0,1.0,1.0
44.32,42.4944,1.0,1.0,1.0
44.36,39.0,1.0,1.0,1.0
44.4,64.4944,1.0,1.0,1.0
44.44,77.4944,1.0,1.0,1.0
44.48,92.4944,1.0,1.0,1.0
44.52,84.9889,1.0,1.0,1.0
44.56,79.4944,1.0,1.0,1.0
44.6,48.5056,1.0,1.0,1.0
44.64,65.4833,1.0,1.0,1.0
44.68,46.4944,1.0,1.0,1.0
44.72,63.4944,1.0,1.0,1.0
44.76,49.4944,1.0,1.0,1.0
44.8,46.5056,1.0,1.0,1.0
44.84,63.0,1.0,1.0,1.0
44.88,72.5056,1.0,1.0,1.0
44.92,64.4944,1.0,1.0,1.0
44.96,83.9889,1.0,1.0,1.0
45.0,104.4944,1.0,1.0,1.0
45.04,114.5056,1.0,1.0,1.0
45.08,148.9778,1.0,1.0,1.0
45.12,138.4833,1.0,1.0,1.0
45.16,139.0111,1.0,1.0,1.0
45.2,104.5056,1.0,1.0,1.0
45.24,125.5056,1.0,1.0,1.0
45.28,111.0,1.0,1.0,1.0
45.32,111.5167,1.0,1.0,1.0
45.36,111.0,1.0,1.0,1.0
45.4,114.0,1.0,1.0,1.0
45.44,135.4833,1.0,1.0,1.0
45.48,139.4944,1.0,1.0,1.0
45.52,170.5167,1.0,1.0,1.0
45.56,216.9556,1.0,1.0,1.0
45.6,295.0333,1.0,1.0,1.0
45.64,346.4722,1.0,1.0,1.0
45.68,384.0222,1.0,1.0,1.0
45.72,412.5056,1.0,1.0,1.0
45.76,464.0111,1.0,1.0,1.0
45.8,438.9667,1.0,1.0,1.0
45.84,418.0111,1.0,1.0,1.0
45.88,460.0333,1.0,1.0,1.0
45.92,416.5389,1.0,1.0,1.0
45.96,373.5167,1.0,1.0,1.0
46.0,416.0222,1.0,1.0,1.0
46.04,451.0333,1.0,1.0,1.0
46.08,689.4944,1.0,1.0,1.0
46.12,952.4389,1.0,1.0,1.0
46.16,1404.93,1.0,1.0,1.0
46.2,1978.51,1.0,1.0,1.0
46.24,2797.42,1.0,1.0,1.0
46.28,3881.439,1.0,1.0,1.0
46.32,4885.55,1.0,1.0,1.0
46.36,6539.9,1.0,1.0,1.0
46.4,8347.29,1.0,1.0,1.0
46.44,9972.81,1.0,1.0,1.0
46.48,12312.7,1.0,1.0,1.0
46.52,14523.4,1.0,1.0,1.0
46.56,17051.877,1.0,1.0,1.0
46.6,19638.127,1.0,1.0,1.0
46.64,22273.5,1.0,1.0,1.0
46.68,25497.3,1.0,1.0,1.0
46.72,29094.084,1.0,1.0,1.0
46.76,34599.6,1.0,1.0,1.0
46.8,42478.9,1.0,1.0,1.0
46.84,60187.6,1.0,1.0,1.0
46.88,108669,1.0,1.0,1.0
46.92,349227,1.0,1.0,1.0
46.96,40285548.0,1.0,1.0,1.0
47.0,203450,1.0,1.0,1.0
47.04,37151.7,1.0,1.0,1.0
47.08,13442.9,1.0,1.0,1.0
47.12,7861.18,1.0,1.0,1.0
47.16,5226.06,1.0,1.0,1.0
47.2,3803.01,1.0,1.0,1.0
47.24,2798.53,1.0,1.0,1.0
47.28,2019.51,1.0,1.0,1.0
47.32,1343.99,1.0,1.0,1.0
47.36,842.0222,1.0,1.0,1.0
47.4,526.4944,1.0,1.0,1.0
47.44,292.5056,1.0,1.0,1.0
47.48,174.4944,1.0,1.0,1.0
47.52,105.4944,1.0,1.0,1.0
47.56,108.5056,1.0,1.0,1.0
47.6,141.0111,1.0,1.0,1.0
47.64,194.9889,1.0,1.0,1.0
47.68,213.5389,1.0,1.0,1.0
47.72,280.0333,1.0,1.0,1.0
47.76,326.5278,1.0,1.0,1.0
47.8,340.0,1.0,1.0,1.0
47.84,286.0,1.0,1.0,1.0
47.88,266.5167,1.0,1.0,1.0
47.92,250.0,1.0,1.0,1.0
47.96,166.5056,1.0,1.0,1.0
48.0,135.0333,1.0,1.0,1.0
48.04,100.4833,1.0,1.0,1.0
48.08,52.9889,1.0,1.0,1.0
48.12,53.5056,1.0,1.0,1.0
48.16,40.5056,1.0,1.0,1.0
48.2,42.9889,1.0,1.0,1.0
48.24,43.4833,1.0,1.0,1.0
48.28,60.0111,1.0,1.0,1.0
48.32,52.4944,1.0,1.0,1.0
48.36,94.4944,1.0,1.0,1.0
48.4,113.5056,1.0,1.0,1.0
48.44,119.4833,1.0,1.0,1.0
48.48,93.0,1.0,1.0,1.0
48.52,107.5056,1.0,1.0,1.0
48.56,70.9889,1.0,1.0,1.0
48.6,84.4944,1.0,1.0,1.0
48.64,67.5056,1.0,1.0,1.0
48.68,54.5278,1.0,1.0,1.0
48.72,31.0,1.0,1.0,1.0
48.76,23.0,1.0,1.0,1.0
48.8,28.0,1.0,1.0,1.0
48.84,7.4944,1.0,1.0,1.0
48.88,12.0111,1.0,1.0,1.0
48.92,14.0,1.0,1.0,1.0
48.96,23.0,1.0,1.0,1.0
49.0,42.0,1.0,1.0,1.0
49.04,32.5056,1.0,1.0,1.0
49.08,44.9889,1.0,1.0,1.0
49.12,45.4944,1.0,1.0,1.0
49.16,61.5056,1.0,1.0,1.0
49.2,48.4944,1.0,1.0,1.0
49.24,43.0,1.0,1.0,1.0
49.28,37.0,1.0,1.0,1.0
49.32,25.0,1.0,1.0,1.0
49.36,28.0,1.0,1.0,1.0
49.4,19.0,1.0,1.0,1.0
49.44,18.0,1.0,1.0,1.0
49.48,10.0,1.0,1.0,1.0
49.52,9.0,1.0,1.0,1.0
49.56,13.0,1.0,1.0,1.0
49.6,3.0,1.0,1.0,1.0
49.64,14.0,1.0,1.0,1.0
49.68,17.0,1.0,1.0,1.0
49.72,32.0,1.0,1.0,1.0
49.76,13.0,1.0,1.0,1.0
49.8,28.0,1.0,1.0,1.0
49.84,29.0111,1.0,1.0,1.0
49.88,36.5056,1.0,1.0,1.0
49.92,25.4944,1.0,1.0,1.0
49.96,11.5056,1.0,1.0,1.0
50.0,20.9889,1.0,1.0,1.0
50.04,15.4944,1.0,1.0,1.0
50.08,16.4944,1.0,1.0,1.0
50.12,13.5056,1.0,1.0,1.0
50.16,6.0,1.0,1.0,1.0
50.2,10.0,1.0,1.0,1.0
50.24,6.0,1.0,1.0,1.0
50.28,2.0,1.0,1.0,1.0
50.32,14.0,1.0,1.0,1.0
50.36,20.0111,1.0,1.0,1.0
50.4,6.4944,1.0,1.0,1.0
50.44,10.0,1.0,1.0,1.0
50.48,13.0,1.0,1.0,1.0
50.52,15.0,1.0,1.0,1.0
50.56,8.0,1.0,1.0,1.0
50.6,18.0,1.0,1.0,1.0
50.64,7.0,1.0,1.0,1.0
50.68,3.0,1.0,1.0,1.0
50.72,8.0,1.0,1.0,1.0
50.76,8.0,1.0,1.0,1.0
50.8,6.4944,1.0,1.0,1.0
50.84,2.0,1.0,1.0,1.0
50.88,11.0,1.0,1.0,1.0
50.92,4.0,1.0,1.0,1.0
50.96,8.0,1.0,1.0,1.0
51.0,5.0,1.0,1.0,1.0
51.04,7.4944,1.0,1.0,1.0
51.08,3.0,1.0,1.0,1.0
51.12,10.9889,1.0,1.0,1.0
51.16,8.0,1.0,1.0,1.0
51.2,2.0,1.0,1.0,1.0
51.24,4.4944,1.0,1.0,1.0
51.28,15.0,1.0,1.0,1.0
51.32,5.0,1.0,1.0,1.0
51.36,8.0,1.0,1.0,1.0
51.4,5.0,1.0,1.0,1.0
51.44,8.0,1.0,1.0,1.0
51.48,3.0,1.0,1.0,1.0
51.52,7.0,1.0,1.0,1.0
51.56,6.4944,1.0,1.0,1.0
51.6,0.5056,1.0,1.0,1.0
51.64,6.0,1.0,1.0,1.0
51.68,3.0,1.0,1.0,1.0
51.72,1.0,1.0,1.0,1.0
51.76,7.0,1.0,1.0,1.0
51.8,8.0,1.0,1.0,1.0
51.84,6.0,1.0,1.0,1.0
51.88,1.0,1.0,1.0,1.0
51.92,5.0,1.0,1.0,1.0
51.96,4.0,1.0,1.0,1.0
52.0,0.0,1.0,1.0,1.0

File: 22127_LCOS_XRD_200_2-Theta_Omega.asc
*TYPE		=  Raw
*CLASS		=  ASCII CLASS
*SAMPLE		=
*COMMENT	=
*FNAME		=  22127_LCOS_XRD_200_2-Theta_Omega.asc
*DATE		=  25-Aug-22 16:42

*GROUP_COUNT	=  1
*GONIO		=  SmartLab(In-plane), 0.000000
*ATTACHMENT	=  Z-Phi Stage
*ASC		=  0, 0, 0.000000, 0.000000
*I_MONOCHRO	=  Ge(220)x2, 0.000000
*FILTER		=  None
*C_MONOCHRO	=  None, 0.000000
*SLIT_NAME	=  0, Incident slit
*SLIT_NAME	=  1, Receiving slit # 1
*SLIT_NAME	=  2, Receiving slit # 2
*COUNTER	=  D/teX Ultra 250, 0
*POS_FORMAT	=  0
*SCAN_AXIS	=  2Theta/Omega
*MEAS_MODE	=  Continuous Scanning
*TARGET		=  29
*XRAY_CHAR	=  K-ALPHA1
*WAVE_LENGTH1	=  1.54059
*WAVE_LENGTH2	=  1.54441
*THICKNESS	=  0, 0.000000
*MU		=  0, 0.000000
*SCAN_MODE	=  2Theta/Omega
*SPEED_DIM	=  sec./step
*XUNIT		=  deg.
*YUNIT		=  counts
*SCALE_MODE	=  1
*REP_COUNT	=  0
*SE_COUNT	=  0
*STD_MATERIAL	=  Unknown, Unknown, 0.000000, 0.000000, 0.000000, 0.000000, 0.000000, 0.000000
*LATT_CONS	=  0, Unknown, Unknown, 0.000000, 0.000000, 0.000000, 0.000000, 0.000000, 0.000000
*SEC_COUNT	=  1
*TSPEC_SIZE	=  0
*EXTRA_SIZE	=  0
*MEMO		=

*BEGIN
*GROUP		=  0
*START		=  42
*STOP		=  52
*STEP		=  0.01
*OFFSET		=  0.0426
*SPEED		=  19.9588
*SLIT_SPEC	=  0, 0.400mm, 0.4, 0.000000
*SLIT_SPEC	=  1, 0.400mm, 0.4, 0.000000
*SLIT_SPEC	=  2, 0.400mm, 0.4, 0.000000
*KV		=  40
*MA		=  30
*LOW		=  0.000000
*HIGH		=  0.000000
*CTEMPER	=  0, 0.000000
*CTEMPER	=  1, 0.000000
*CTEMPER	=  2, 0.000000
*PAREX		=  0, 0.000000
*PAREX		=  1, 0.000000
*PAREX		=  2, 0.000000
*PAREX		=  3, 0.000000
*PAREX		=  4, 0.000000
*PAREX		=  5, 0.000000
*PAREX		=  6, 0.000000
*PAREX		=  7, 0.000000
*PAREX		=  8, 0.000000
*PAREX		=  9, 0.000000
*PAREX		=  10, 0.000000
*PAREX		=  11, 0.000000
*PAREX		=  12, 0.000000
*PAREX		=  13, 0.000000
*PAREX		=  14, 0.000000
*PAREX		=  15, 0.000000
*FULL_SCALE	=  2724985.3
*INDEX		=  0, 0, 0
*COUNT		=  1001
18.5056, 12.4944, 11.5056, 7
15, 17, 20, 7
10, 6.49445, 16.4944, 20.5056
5.50555, 17, 14, 9
16, 8, 13, 11
20, 19.4944, 17.5056, 21.4944
7.50555, 8, 21, 14
22, 23, 19, 24
14.9889, 29.0111, 13.9889, 22.0111
21, 22, 19, 31.4944
22.5056, 23.4944, 25.5056, 22
13, 27, 23, 25.4944
26.4944, 30.0111, 25, 17
12, 19, 20.4944, 17.5056
19.4944, 21, 28.5056, 17
22, 21.9889, 11.0111, 14.4944
15.5056, 8.49445, 14.5056, 12
14, 18.9889, 10.0111, 20
11, 11, 16, 4.49445
15.5056, 10.4944, 13.5056, 13
21.4944, 11.5056, 7, 6
8.49445, 11.5056, 18, 11
26, 12, 21, 1.49445
16.5056, 23, 26.4944, 9.50555
22, 17.9889, 24.5056, 18
18.9889, 19.5167, 17, 35.9889
47, 22.5056, 24.5056, 50.9889
25.0111, 29, 26, 21
32, 35.9889, 50.5056, 33.5056
33.9889, 44.0111, 28.4944, 40.5056
34.4944, 33.9889, 29.5167, 23
32, 26, 26, 29
26.9778, 37.0222, 49, 21.9889
42.0111, 37.9889, 20.0111, 23.4944
21.5056, 35.9889, 18.0111, 10
15, 14, 15, 12
23, 15.4944, 15.5056, 6.49445
30.5056, 18, 22, 12
25, 15, 22, 19
12, 24.4944, 32, 12.5056
24, 22.4944, 33.5056, 46.9889
33, 45.0111, 32.9889, 51
33.0111, 26.4944, 49.4944, 41.0111
35, 30, 30, 35
39.4944, 43.4944, 42, 54.0111
25.9889, 61.5056, 60.5056, 43.9889
56.5056, 50.5056, 35.4944, 52.5056
50, 33.4833, 39.0111, 49
47.5056, 42, 37.9889, 52.5056
37.5056, 52.4944, 38, 54
47, 30, 15.4944, 37.0111
27, 45, 36, 19
20, 31.9889, 30.5056, 32.5056
31, 20.9889, 30.0111, 20.4944
31.5056, 30.4944, 27.5056, 35
32, 31, 27, 40.4944
20.5056, 28, 44, 35.4944
43, 53.5056, 45, 68.4944
42.4944, 58.5056, 46, 59
39, 72.4944, 76.0111, 52
64.4944, 57.4944, 48.5056, 77.5056
77.4944, 69, 62.4833, 70.5167
92.4944, 80.0111, 69.4722, 67.0222
84.9889, 68.4944, 71.5167, 85.5056
79.4944, 53.5056, 60, 73.4944
48.5056, 48.4833, 74.5167, 44
65.4833, 66, 49.0111, 47.5056
46.4944, 53.4944, 55.4944, 53.5167
63.4944, 40, 57, 47.5056
49.4944, 29.4944, 45.0111, 42.4833
46.5056, 53.5056, 41.5056, 61.4944
63, 23.5056, 67.4944, 52.4944
72.5056, 59.4944, 92.0111, 62.4944
64.4944, 91.5056, 61.9778, 67.0222
83.9889, 105.506, 97, 94.5056
104.494, 93.9778, 159.528, 119
114.506, 104.978, 143.022, 146
148.978, 124.011, 119.978, 131.033
138.483, 153, 153.011, 150.989
139.011, 146.989, 123.506, 137.989
104.506, 144, 105, 139.506
125.506, 136.494, 122.483, 126.517
111, 95, 122, 111.494
111.517, 105.989, 103.494, 96.5056
111, 122, 108.494, 107.011
114, 108.494, 101.506, 111
135.483, 122, 116.494, 147.022
139.494, 170.494, 151.506, 177.494
170.517, 214.967, 199.022, 215.494
216.956, 244.55, 252, 260.461
295.033, 287.461, 291.044, 326.989
346.472, 396.494, 364.011, 411
384.022, 413, 378.978, 410.494
412.506, 431.494, 415.494, 440.989
464.011, 489.472, 489.011, 465.056
438.967, 451.461, 445.517, 467
418.011, 435.517, 442.483, 425.989
460.033, 439.011, 420, 417.461
416.539, 405.978, 393.989, 422.011
373.517, 366.011, 367.989, 401.978
416.022, 427.978, 413.494, 473.483
451.033, 517.472, 585.483, 629
689.494, 717.033, 698, 800.472
952.439, 1046.54, 1126, 1252.98
1404.93, 1458.49, 1669.03, 1854.97
1978.51, 2175.9, 2492.02, 2620.48
2797.42, 2976.57, 3281.45, 3564.93
3881.44, 4121.01, 4379.01, 4608.41
4885.55, 5370.97, 5724.35, 6028.59
6539.9, 6941.46, 7341.37, 7751.03
8347.29, 8768.99, 9151.87, 9733.22
9972.81, 10618.6, 11301.8, 11560.6
12312.7, 12884.5, 13412.8, 13911.6
14523.4, 15274.6, 15925.2, 16433.2
17051.9, 17489.3, 18303.8, 18824.6
19638.1, 20305.5, 21077, 21714.4
22273.5, 23271.9, 24281.3, 24621.1
25497.3, 26410.5, 27249.3, 28007.6
29094.1, 30434.7, 31646, 33050.8
34599.6, 35598.7, 38030.9, 39993.8
42478.9, 45916.3, 49472.1, 54306.9
60187.6, 67369.3, 77362.6, 90581.1
108669, 134521, 174442, 236238
349227, 602506, 1761708.3, 13431346
40285548, 22086602, 2894892, 428739
203450, 126401, 83825.4, 54786.6
37151.7, 27097.8, 20542.6, 16330.9
13442.9, 11199.1, 9646.13, 8564.54
7861.18, 6870.49, 6400.14, 5674.11
5226.06, 4912.96, 4511.1, 4097.07
3803.01, 3570.06, 3196.01, 3107.93
2798.53, 2497.59, 2411.01, 2172.03
2019.51, 1821.44, 1673.64, 1472.46
1343.99, 1220.03, 1124.1, 961.406
842.022, 815.044, 726.011, 589.978
526.494, 442.011, 398.528, 328
292.506, 288, 237.517, 187.506
174.494, 160.517, 103, 120
105.494, 96, 96.5056, 69.9889
108.506, 129, 118.011, 105.978
141.011, 158.494, 150, 183.494
194.989, 202.528, 225.978, 261.978
213.539, 230.978, 257.978, 318.483
280.033, 295.517, 283, 325.956
326.528, 330, 318.506, 314.506
340, 350.472, 331.528, 345.989
286, 289, 275.033, 259.944
266.517, 271.022, 221.517, 253.967
250, 242.033, 230.483, 218.506
166.506, 198, 151.989, 148.989
135.033, 123.494, 99, 118
100.483, 98.5167, 89, 82.5056
52.9889, 62.5056, 64.4944, 36.5056
53.5056, 41, 44, 21.9889
40.5056, 37, 15, 53.5056
42.9889, 52.0111, 39, 22.4944
43.4833, 43.0222, 46.4944, 57.9889
60.0111, 77, 75.4944, 71.0111
52.4944, 70.4944, 84, 87.0111
94.4944, 120.494, 91.4944, 126
113.506, 101.011, 111.494, 103
119.483, 100.506, 116.517, 105.978
93, 95.5056, 116.506, 110.494
107.506, 69.4944, 88.0111, 73.9889
70.9889, 108.022, 101, 88.9889
84.4944, 66.5167, 85.5056, 69.4833
67.5056, 72.9889, 70.0111, 53.4833
54.5278, 56, 24.4944, 52.5056
31, 30.9889, 26.0111, 31
23, 10.4944, 19.5056, 21
28, 14, 13, 16
7.49445, 29.5056, 14, 24.9889
12.0111, 20, 29.9889, 33.5056
14, 15.5056, 20.9889, 26.0111
23, 21.9889, 33, 34.5056
42, 28.5056, 32, 48.9889
32.5056, 40.5056, 43.9889, 30.0111
44.9889, 43.4944, 33.5167, 45
45.4944, 61, 43, 52.4944
61.5056, 40.5056, 57.9778, 52.0222
48.4944, 46, 58, 35.5056
43, 37.4944, 21, 45
37, 31.4944, 29.0111, 30
25, 18, 26.4944, 20.5056
28, 24, 20, 10
19, 19, 14, 14
18, 21, 12, 8
10, 10, 6, 4
9, 6, 3, 5
13, 11, 15.4944, 13.5056
3, 20, 5.49445, 18.5056
14, 13, 21.4944, 20.5056
17, 18, 16.4944, 16.5056
32, 7, 17, 14
13, 14, 25.9889, 24.0111
28, 25, 34, 24.9889
29.0111, 23.4944, 28, 20
36.5056, 21.4944, 24.5056, 26
25.4944, 16.5056, 9, 27.4944
11.5056, 9, 15, 18
20.9889, 29.0111, 16, 18
15.4944, 10.5056, 8, 17
16.4944, 7.50555, 7, 20.4944
13.5056, 16, 4, 9
6, 12, 12, 6
10, 2, 5, 2
6, 2, 7.49445, 7.50555
2, 3, 4, 4
14, 8, 14, 12.9889
20.0111, 15, 13, 13
6.49445, 6.50555, 9, 18
10, 19, 15, 20
13, 6, 9, 23
15, 6, 14, 14
8, 27, 12, 12
18, 5, 17, 8
7, 8, 18, 13
3, 15, 1, 9
8, 4, 10.4944, 14.5056
8, 6, 2, 2
6.49445, 5.50555, 2.49445, 16.5056
2, 8.49445, 7.50555, 7
11, 11, 1, 5
4, 4, 5, 2
8, 7, 6, 4
5, 7, 11, 5
7.49445, 6.50555, 5, 8
3, 4.49445, 6.50555, 6
10.9889, 7.50555, 12.5056, 4
8, 13, 13, 14
2, 10.4944, 7.50555, 4
4.49445, 15.5056, 14, 6
15, 0.000000, 12, 20
5, 14, 5, 9
8, 5, 13, 3
5, 2, 3.49445, 1.50555
8, 5, 15, 0.000000
3, 2, 8.49445, 5.50555
7, 6, 2, 5
6.49445, 10.5056, 2, 4.49445
0.505554, 6, 6, 2
6, 2, 3, 0.000000
3, 7, 2.49445, 4.50555
1, 4, 7, 3
7, 0.000000, 12.4944, 0.505554
8, 31, 4, 3
6, 7.98889, 8.01111, 2
1, 2, 4, 4
5, 0.000000, 6, 3
4, 4, 2, 9
0.000000
*END

*EOF