Folder: Analysis/XRD:XRR/LCO/22126_LCON

File: 22126_LCON_XRD_220.csv
#twotheta, yobs, ycal, bkg, diff
42.0,62.4833,1.0,1.0,1.0
42.04,61.0,1.0,1.0,1.0
42.08,73.5056,1.0,1.0,1.0
42.12,74.4944,1.0,1.0,1.0
42.16,82.4944,1.0,1.0,1.0
42.2,88.0111,1.0,1.0,1.0
42.24,69.0,1.0,1.0,1.0
42.28,63.0,1.0,1.0,1.0
42.32,69.0111,1.0,1.0,1.0
42.36,59.0,1.0,1.0,1.0
42.4,62.4833,1.0,1.0,1.0
42.44,62.5056,1.0,1.0,1.0
42.48,73.5056,1.0,1.0,1.0
42.52,82.5056,1.0,1.0,1.0
42.56,75.9889,1.0,1.0,1.0
42.6,85.5167,1.0,1.0,1.0
42.64,84.0,1.0,1.0,1.0
42.68,85.5056,1.0,1.0,1.0
42.72,74.5167,1.0,1.0,1.0
42.76,79.0,1.0,1.0,1.0
42.8,53.9889,1.0,1.0,1.0
42.84,83.4833,1.0,1.0,1.0
42.88,68.9778,1.0,1.0,1.0
42.92,90.4833,1.0,1.0,1.0
42.96,76.0222,1.0,1.0,1.0
43.0,89.5056,1.0,1.0,1.0
43.04,82.5056,1.0,1.0,1.0
43.08,110.4833,1.0,1.0,1.0
43.12,104.0,1.0,1.0,1.0
43.16,84.4944,1.0,1.0,1.0
43.2,88.0,1.0,1.0,1.0
43.24,100.4944,1.0,1.0,1.0
43.28,111.0111,1.0,1.0,1.0
43.32,75.5056,1.0,1.0,1.0
43.36,89.5056,1.0,1.0,1.0
43.4,91.0,1.0,1.0,1.0
43.44,118.0,1.0,1.0,1.0
43.48,112.0,1.0,1.0,1.0
43.52,123.0111,1.0,1.0,1.0
43.56,130.9778,1.0,1.0,1.0
43.6,135.5167,1.0,1.0,1.0
43.64,123.4944,1.0,1.0,1.0
43.68,146.0,1.0,1.0,1.0
43.72,139.5167,1.0,1.0,1.0
43.76,128.0,1.0,1.0,1.0
43.8,132.5056,1.0,1.0,1.0
43.84,118.0,1.0,1.0,1.0
43.88,136.4944,1.0,1.0,1.0
43.92,149.0,1.0,1.0,1.0
43.96,139.4944,1.0,1.0,1.0
44.0,148.9889,1.0,1.0,1.0
44.04,159.5167,1.0,1.0,1.0
44.08,176.4944,1.0,1.0,1.0
44.12,175.9778,1.0,1.0,1.0
44.16,200.55,1.0,1.0,1.0
44.2,178.0,1.0,1.0,1.0
44.24,207.0,1.0,1.0,1.0
44.28,190.0111,1.0,1.0,1.0
44.32,187.4722,1.0,1.0,1.0
44.36,168.4944,1.0,1.0,1.0
44.4,183.5278,1.0,1.0,1.0
44.44,209.9778,1.0,1.0,1.0
44.48,195.0,1.0,1.0,1.0
44.52,223.4944,1.0,1.0,1.0
44.56,204.4722,1.0,1.0,1.0
44.6,244.9889,1.0,1.0,1.0
44.64,303.4944,1.0,1.0,1.0
44.68,317.0222,1.0,1.0,1.0
44.72,327.9889,1.0,1.0,1.0
44.76,373.4722,1.0,1.0,1.0
44.8,347.5389,1.0,1.0,1.0
44.84,400.9667,1.0,1.0,1.0
44.88,342.4722,1.0,1.0,1.0
44.92,386.0333,1.0,1.0,1.0
44.96,390.0222,1.0,1.0,1.0
45.0,354.5167,1.0,1.0,1.0
45.04,354.9667,1.0,1.0,1.0
45.08,329.5056,1.0,1.0,1.0
45.12,322.4944,1.0,1.0,1.0
45.16,338.0,1.0,1.0,1.0
45.2,395.4944,1.0,1.0,1.0
45.24,435.45,1.0,1.0,1.0
45.28,541.4944,1.0,1.0,1.0
45.32,688.0111,1.0,1.0,1.0
45.36,724.9445,1.0,1.0,1.0
45.4,926.0,1.0,1.0,1.0
45.44,1009.49,1.0,1.0,1.0
45.48,1069.02,1.0,1.0,1.0
45.52,1107.52,1.0,1.0,1.0
45.56,1191.01,1.0,1.0,1.0
45.6,1121.44,1.0,1.0,1.0
45.64,1084.49,1.0,1.0,1.0
45.68,1083.09,1.0,1.0,1.0
45.72,979.5278,1.0,1.0,1.0
45.76,1087.99,1.0,1.0,1.0
45.8,1364.53,1.0,1.0,1.0
45.84,1804.93,1.0,1.0,1.0
45.88,2675.99,1.0,1.0,1.0
45.92,4040.03,1.0,1.0,1.0
45.96,5741.33,1.0,1.0,1.0
46.0,8113.83,1.0,1.0,1.0
46.04,10973.1,1.0,1.0,1.0
46.08,14352.5,1.0,1.0,1.0
46.12,18725.8,1.0,1.0,1.0
46.16,23644.1,1.0,1.0,1.0
46.2,28501.9,1.0,1.0,1.0
46.24,33809.6,1.0,1.0,1.0
46.28,39602.9,1.0,1.0,1.0
46.32,44670,1.0,1.0,1.0
46.36,50187.1,1.0,1.0,1.0
46.4,54512,1.0,1.0,1.0
46.44,58845.7,1.0,1.0,1.0
46.48,61823.6,1.0,1.0,1.0
46.52,64029.2,1.0,1.0,1.0
46.56,65111.6,1.0,1.0,1.0
46.6,65515.4,1.0,1.0,1.0
46.64,65030.7,1.0,1.0,1.0
46.68,63169.5,1.0,1.0,1.0
46.72,61355.4,1.0,1.0,1.0
46.76,58869.7,1.0,1.0,1.0
46.8,57453.6,1.0,1.0,1.0
46.84,57820.8,1.0,1.0,1.0
46.88,62663.25,1.0,1.0,1.0
46.92,83400.1,1.0,1.0,1.0
46.96,159820,1.0,1.0,1.0
47.0,619703,1.0,1.0,1.0
47.04,96931360.0,1.0,1.0,1.0
47.08,462118.125,1.0,1.0,1.0
47.12,104253,1.0,1.0,1.0
47.16,40806.5,1.0,1.0,1.0
47.2,19064.3,1.0,1.0,1.0
47.24,9820.08,1.0,1.0,1.0
47.28,4884.94,1.0,1.0,1.0
47.32,2461.09,1.0,1.0,1.0
47.36,1145.03,1.0,1.0,1.0
47.4,493.0222,1.0,1.0,1.0
47.44,377.5167,1.0,1.0,1.0
47.48,473.0111,1.0,1.0,1.0
47.52,698.9778,1.0,1.0,1.0
47.56,939.0333,1.0,1.0,1.0
47.6,1008.52,1.0,1.0,1.0
47.64,1119.49,1.0,1.0,1.0
47.68,1218.53,1.0,1.0,1.0
47.72,1124.98,1.0,1.0,1.0
47.76,973.45,1.0,1.0,1.0
47.8,846.9667,1.0,1.0,1.0
47.84,629.5167,1.0,1.0,1.0
47.88,520.9778,1.0,1.0,1.0
47.92,342.4944,1.0,1.0,1.0
47.96,262.4944,1.0,1.0,1.0
48.0,163.4944,1.0,1.0,1.0
48.04,141.0,1.0,1.0,1.0
48.08,114.5056,1.0,1.0,1.0
48.12,110.0111,1.0,1.0,1.0
48.16,168.5167,1.0,1.0,1.0
48.2,202.0222,1.0,1.0,1.0
48.24,218.0,1.0,1.0,1.0
48.28,282.9778,1.0,1.0,1.0
48.32,283.0,1.0,1.0,1.0
48.36,289.0111,1.0,1.0,1.0
48.4,277.9778,1.0,1.0,1.0
48.44,245.9889,1.0,1.0,1.0
48.48,236.0,1.0,1.0,1.0
48.52,176.5056,1.0,1.0,1.0
48.56,138.0111,1.0,1.0,1.0
48.6,158.5167,1.0,1.0,1.0
48.64,130.0,1.0,1.0,1.0
48.68,118.9889,1.0,1.0,1.0
48.72,89.5056,1.0,1.0,1.0
48.76,93.0,1.0,1.0,1.0
48.8,88.5278,1.0,1.0,1.0
48.84,111.5056,1.0,1.0,1.0
48.88,131.0,1.0,1.0,1.0
48.92,124.5167,1.0,1.0,1.0
48.96,92.0111,1.0,1.0,1.0
49.0,113.5056,1.0,1.0,1.0
49.04,122.5056,1.0,1.0,1.0
49.08,114.9889,1.0,1.0,1.0
49.12,100.9889,1.0,1.0,1.0
49.16,91.0,1.0,1.0,1.0
49.2,99.0,1.0,1.0,1.0
49.24,90.4944,1.0,1.0,1.0
49.28,70.9889,1.0,1.0,1.0
49.32,95.0111,1.0,1.0,1.0
49.36,84.4833,1.0,1.0,1.0
49.4,75.0111,1.0,1.0,1.0
49.44,68.4944,1.0,1.0,1.0
49.48,76.0,1.0,1.0,1.0
49.52,66.4944,1.0,1.0,1.0
49.56,89.0111,1.0,1.0,1.0
49.6,76.4944,1.0,1.0,1.0
49.64,80.4944,1.0,1.0,1.0
49.68,84.0111,1.0,1.0,1.0
49.72,94.0111,1.0,1.0,1.0
49.76,61.4944,1.0,1.0,1.0
49.8,69.0111,1.0,1.0,1.0
49.84,76.5056,1.0,1.0,1.0
49.88,52.9889,1.0,1.0,1.0
49.92,51.0,1.0,1.0,1.0
49.96,66.4833,1.0,1.0,1.0
50.0,39.0111,1.0,1.0,1.0
50.04,46.4833,1.0,1.0,1.0
50.08,61.0,1.0,1.0,1.0
50.12,61.4944,1.0,1.0,1.0
50.16,67.4944,1.0,1.0,1.0
50.2,57.0,1.0,1.0,1.0
50.24,51.5056,1.0,1.0,1.0
50.28,52.0,1.0,1.0,1.0
50.32,55.9889,1.0,1.0,1.0
50.36,35.5056,1.0,1.0,1.0
50.4,67.0,1.0,1.0,1.0
50.44,57.0,1.0,1.0,1.0
50.48,55.4944,1.0,1.0,1.0
50.52,40.5056,1.0,1.0,1.0
50.56,55.5056,1.0,1.0,1.0
50.6,45.0111,1.0,1.0,1.0
50.64,50.0,1.0,1.0,1.0
50.68,46.4944,1.0,1.0,1.0
50.72,43.0,1.0,1.0,1.0
50.76,49.5167,1.0,1.0,1.0
50.8,45.0,1.0,1.0,1.0
50.84,37.0,1.0,1.0,1.0
50.88,50.0,1.0,1.0,1.0
50.92,67.0111,1.0,1.0,1.0
50.96,45.0,1.0,1.0,1.0
51.0,59.5056,1.0,1.0,1.0
51.04,52.5056,1.0,1.0,1.0
51.08,49.0,1.0,1.0,1.0
51.12,39.4944,1.0,1.0,1.0
51.16,57.9889,1.0,1.0,1.0
51.2,42.5056,1.0,1.0,1.0
51.24,29.0,1.0,1.0,1.0
51.28,44.5167,1.0,1.0,1.0
51.32,58.5056,1.0,1.0,1.0
51.36,46.0,1.0,1.0,1.0
51.4,28.0,1.0,1.0,1.0
51.44,35.5056,1.0,1.0,1.0
51.48,35.0,1.0,1.0,1.0
51.52,51.5056,1.0,1.0,1.0
51.56,35.5056,1.0,1.0,1.0
51.6,50.5056,1.0,1.0,1.0
51.64,46.4944,1.0,1.0,1.0
51.68,26.0,1.0,1.0,1.0
51.72,49.4944,1.0,1.0,1.0
51.76,34.5056,1.0,1.0,1.0
51.8,41.0,1.0,1.0,1.0
51.84,42.0,1.0,1.0,1.0
51.88,34.0111,1.0,1.0,1.0
51.92,36.0111,1.0,1.0,1.0
51.96,42.9889,1.0,1.0,1.0
52.0,35.0,1.0,1.0,1.0

File: 22126_LCON_XRD_220_2-Theta_Omega.asc
*TYPE		=  Raw
*CLASS		=  ASCII CLASS
*SAMPLE		=
*COMMENT	=
*FNAME		=  22126_LCON_XRD_220_2-Theta_Omega.asc
*DATE		=  23-Aug-22 18:59

*GROUP_COUNT	=  1
*GONIO		=  SmartLab(In-plane), 0.000000
*ATTACHMENT	=  Z-Phi Stage
*ASC		=  0, 0, 0.000000, 0.000000
*I_MONOCHRO	=  Ge(220)x2, 0.000000
*FILTER		=  None
*C_MONOCHRO	=  None, 0.000000
*SLIT_NAME	=  0, Incident slit
*SLIT_NAME	=  1, Receiving slit # 1
*SLIT_NAME	=  2, Receiving slit # 2
*COUNTER	=  D/teX Ultra 250, 0
*POS_FORMAT	=  0
*SCAN_AXIS	=  2Theta/Omega
*MEAS_MODE	=  Continuous Scanning
*TARGET		=  29
*XRAY_CHAR	=  K-ALPHA1
*WAVE_LENGTH1	=  1.54059
*WAVE_LENGTH2	=  1.54441
*THICKNESS	=  0, 0.000000
*MU		=  0, 0.000000
*SCAN_MODE	=  2Theta/Omega
*SPEED_DIM	=  sec./step
*XUNIT		=  deg.
*YUNIT		=  counts
*SCALE_MODE	=  1
*REP_COUNT	=  0
*SE_COUNT	=  0
*STD_MATERIAL	=  Unknown, Unknown, 0.000000, 0.000000, 0.000000, 0.000000, 0.000000, 0.000000
*LATT_CONS	=  0, Unknown, Unknown, 0.000000, 0.000000, 0.000000, 0.000000, 0.000000, 0.000000
*SEC_COUNT	=  1
*TSPEC_SIZE	=  0
*EXTRA_SIZE	=  0
*MEMO		=

*BEGIN
*GROUP		=  0
*START		=  42
*STOP		=  52
*STEP		=  0.01
*OFFSET		=  0.1234
*SPEED		=  23.9588
*SLIT_SPEC	=  0, 0.400mm, 0.4, 0.000000
*SLIT_SPEC	=  1, 0.400mm, 0.4, 0.000000
*SLIT_SPEC	=  2, 0.400mm, 0.4, 0.000000
*KV		=  40
*MA		=  30
*LOW		=  0.000000
*HIGH		=  0.000000
*CTEMPER	=  0, 0.000000
*CTEMPER	=  1, 0.000000
*CTEMPER	=  2, 0.000000
*PAREX		=  0, 0.000000
*PAREX		=  1, 0.000000
*PAREX		=  2, 0.000000
*PAREX		=  3, 0.000000
*PAREX		=  4, 0.000000
*PAREX		=  5, 0.000000
*PAREX		=  6, 0.000000
*PAREX		=  7, 0.000000
*PAREX		=  8, 0.000000
*PAREX		=  9, 0.000000
*PAREX		=  10, 0.000000
*PAREX		=  11, 0.000000
*PAREX		=  12, 0.000000
*PAREX		=  13, 0.000000
*PAREX		=  14, 0.000000
*PAREX		=  15, 0.000000
*FULL_SCALE	=  6516298
*INDEX		=  0, 0, 0
*COUNT		=  1001
62.4833, 75.4944, 76.0111, 59.0111
61, 54.4833, 77.0111, 77
73.5056, 68.9889, 74.4944, 55.5167
74.4944, 77.9889, 74, 58.0111
82.4944, 73.4944, 78.5167, 58.4833
88.0111, 56.5056, 65.4944, 81.4944
69, 72.5056, 52.5056, 60.4944
63, 81.4944, 67.9889, 59.0111
69.0111, 67.9889, 56, 73.5056
59, 82.5056, 72, 95
62.4833, 70.5167, 89.4833, 77.0111
62.5056, 63.9778, 76.0222, 67.4833
73.5056, 96.4944, 71.0111, 88.4944
82.5056, 86.4944, 62.0111, 81.4944
75.9889, 54.5056, 71.5056, 92.9889
85.5167, 81.4944, 77.9889, 79.0111
84, 65, 91.9889, 85.0111
85.5056, 89.4833, 90.5056, 75.4944
74.5167, 78, 82.4833, 95.0111
79, 94.9889, 101.506, 86.0111
53.9889, 81.5056, 94.9778, 73.5278
83.4833, 99.5056, 75.4944, 69.5167
68.9778, 78, 83.0222, 71
90.4833, 68.5056, 85.0111, 92.9778
76.0222, 79.4944, 102.483, 99.0111
89.5056, 107.506, 81.9889, 73.4944
82.5056, 77.5056, 88.5056, 84.9889
110.483, 91.0111, 84.0111, 88
104, 101.494, 81.9889, 97.0111
84.4944, 90.0111, 99.9778, 126.517
88, 64.0111, 87.4833, 112.517
100.494, 104, 99.9778, 134.506
111.011, 110.506, 96.4944, 105.494
75.5056, 112.494, 106, 119.494
89.5056, 132, 90.5056, 125.506
91, 93, 99.5056, 113.989
118, 116.494, 114.517, 139.978
112, 110, 118.517, 124.494
123.011, 135.494, 122.494, 85.0111
130.978, 105.011, 125.011, 122.978
135.517, 119, 100.978, 124.528
123.494, 137, 131.494, 129.989
146, 135.022, 149.989, 114.494
139.517, 127.989, 130.506, 141.494
128, 92, 118.506, 136.989
132.506, 155.011, 97.4722, 126
118, 141.506, 125.517, 116.494
136.494, 120, 165, 152.494
149, 142.494, 136.022, 159
139.494, 122.494, 169.483, 148.022
148.989, 137.011, 178, 154.494
159.517, 138.472, 177.506, 189.517
176.494, 178.494, 187, 150.506
175.978, 176.506, 177.022, 180.45
200.55, 174.472, 201.517, 185.506
178, 172.472, 194.517, 174
207, 185.506, 179.011, 218.978
190.011, 199.494, 176.011, 198.494
187.472, 162.033, 214.989, 195.506
168.494, 191.506, 185, 214.978
183.528, 178, 217.989, 162.494
209.978, 205.528, 199.022, 185.978
195, 218.506, 197, 197.506
223.494, 243.506, 225, 203
204.472, 238.011, 227.022, 256.483
244.989, 259.506, 249, 270.011
303.494, 266.494, 292.494, 314
317.022, 328.483, 334.989, 311.022
327.989, 300.967, 365.528, 369
373.472, 318.989, 341.539, 380.483
347.539, 340.922, 369.056, 389
400.967, 379.033, 385.517, 340.494
342.472, 391.989, 377.528, 368.978
386.033, 382.506, 336.461, 385.989
390.022, 357.494, 364.494, 371.506
354.517, 381.989, 335.494, 337.011
354.967, 371.539, 329.483, 316
329.506, 358.978, 355.528, 349.011
322.494, 350, 335.506, 320.494
338, 389.506, 343.483, 378.022
395.494, 396.439, 431.55, 488.483
435.45, 477.561, 477, 486
541.494, 557.483, 569.033, 606.45
688.011, 702.517, 716.483, 741.978
724.944, 763.55, 818.044, 825.944
926, 948.517, 992.911, 1003.1
1009.49, 1007.46, 1041.98, 1089.01
1069.02, 1086.53, 1126.98, 1146.45
1107.52, 1164.51, 1171, 1142.52
1191.01, 1184.43, 1120.54, 1175.06
1121.44, 1089.52, 1112.54, 1009
1084.49, 1045.99, 1014.47, 1067.97
1083.09, 1071.01, 1016.47, 989
979.528, 969.428, 1076.55, 1026.96
1087.99, 1098.99, 1192.51, 1279.48
1364.53, 1448.42, 1568.04, 1691.53
1804.93, 2117.48, 2203.02, 2441.46
2675.99, 3028.92, 3301.93, 3643.48
4040.03, 4308.88, 4881.39, 5104.09
5741.33, 6168.56, 6872.43, 7388.42
8113.83, 8913.92, 9334.87, 10280.4
10973.1, 11959.8, 12852.9, 13771.8
14352.5, 15660.5, 16480.3, 17483.9
18725.8, 19928.5, 21315.2, 22527.9
23644.1, 25092.2, 26011.6, 27065.6
28501.9, 29858.3, 31174.9, 32905.4
33809.6, 35407.2, 36899.9, 38386.3
39602.9, 40751.7, 42395.8, 43569.3
44670, 46035.7, 47756.5, 48736.9
50187.1, 51079.9, 51836.8, 53889.2
54512, 55798.7, 56541.2, 57968.4
58845.7, 59734.6, 60441.4, 61135.6
61823.6, 63144.5, 63126.2, 63572.1
64029.2, 65380.6, 64671.2, 65079
65111.6, 65613.2, 65660.2, 65016.8
65515.4, 65323.6, 65238.1, 65319.2
65030.7, 64277.3, 63696.4, 63466.1
63169.5, 63208.6, 62122.2, 61799.7
61355.4, 61080.9, 59935.3, 59724.2
58869.7, 58168.7, 57888.7, 57563.6
57453.6, 57529.7, 57350.6, 57642.3
57820.8, 58541.9, 59752.6, 61017
62663.3, 66301.2, 70212.3, 75745.8
83400.1, 94978, 109258, 130578
159820, 203742, 274764, 391503
619703, 1138376.1, 2909549.5, 32085800
96931360, 11885388, 1994872.1, 819524
462118, 303080, 207746, 143672
104253, 81059.9, 64996.9, 51622.6
40806.5, 33234.9, 27395.3, 22822.1
19064.3, 16361.8, 13794.7, 11634.7
9820.08, 8504.3, 7061.56, 5933.69
4884.94, 4219.26, 3522, 2932.1
2461.09, 2076.97, 1591.56, 1289.54
1145.03, 876.494, 786.539, 641
493.022, 471.494, 410.494, 348.011
377.517, 379.978, 381.989, 447.506
473.011, 486.978, 555.967, 610.517
698.978, 739.528, 784.483, 885.933
939.033, 929.517, 1037.97, 1040.51
1008.52, 1116.97, 1201.01, 1126
1119.49, 1133.01, 1243.48, 1286.02
1218.53, 1157.48, 1094.93, 1136.56
1124.98, 1165.45, 1096.03, 1076.07
973.45, 953.1, 881.45, 938.483
846.967, 807.494, 815.561, 700.011
629.517, 601.967, 598.55, 525.011
520.978, 436.517, 423.483, 379.011
342.494, 321.506, 322.506, 275
262.494, 225.506, 228.022, 180
163.494, 148.989, 168.494, 137.517
141, 110.506, 134.494, 110.506
114.506, 117.483, 117.506, 134.506
110.011, 137, 150.494, 156.967
168.517, 164.517, 193.989, 178.967
202.022, 224.517, 210.483, 233
218, 238.011, 258.989, 253.506
282.978, 285.033, 248.978, 308.989
283, 299, 275.022, 300.989
289.011, 280.483, 268.517, 255.011
277.978, 258, 273.528, 213.494
245.989, 229, 256.494, 246
236, 231.494, 193.506, 189.506
176.506, 208.506, 170.483, 181
138.011, 151.517, 136.483, 144.989
158.517, 140, 137.989, 105.011
130, 98.5056, 115.494, 117
118.989, 76.0222, 101.483, 98
89.5056, 85.5056, 69, 90.4944
93, 91.5056, 98.9889, 95.9889
88.5278, 94.4944, 93.4944, 97.5056
111.506, 117, 92.9778, 109.494
131, 106.011, 117.506, 109.989
124.517, 112.989, 124.494, 137.494
92.0111, 119.494, 119.011, 107.494
113.506, 131.494, 139.506, 145
122.506, 118.494, 97.0111, 106
114.989, 109.989, 110.506, 115.011
100.989, 91.5056, 106, 111
91, 106, 100.506, 84.9889
99, 91, 95.0111, 82.5056
90.4944, 79, 75.9889, 83.5167
70.9889, 73.9889, 67.0222, 91.9778
95.0111, 59.5056, 70.5056, 71.9889
84.4833, 82.5056, 79, 93.0111
75.0111, 68.4833, 46.5056, 55.0111
68.4944, 67.5056, 73.4944, 75
76, 55, 60.4833, 71.5167
66.4944, 57.5056, 63.5056, 91.9889
89.0111, 64.4944, 65.4944, 76.5056
76.4944, 73.5056, 70, 62
80.4944, 80.4944, 93, 67.5056
84.0111, 71, 82, 80.4833
94.0111, 93.4944, 75, 73.5056
61.4944, 95.4944, 84.5056, 64
69.0111, 68.9889, 54.0111, 72.4833
76.5056, 71, 75.0111, 62
52.9889, 65.0111, 77.9889, 62.5056
51, 76, 62.5056, 32.4944
66.4833, 63.5167, 52, 58.9889
39.0111, 45.4944, 46.0111, 48.4944
46.4833, 123.494, 57.5167, 37.0111
61, 57, 56.9889, 35.0111
61.4944, 69.5056, 73.9889, 38.0111
67.4944, 44, 51.5056, 75
57, 66.9889, 68.9889, 61.0111
51.5056, 48.5056, 60.4944, 58
52, 75.9889, 53.5056, 41.0111
55.9889, 61, 35.0111, 44.4944
35.5056, 65, 49.4944, 47
67, 56.4944, 66, 52.5056
57, 55, 68, 52.5056
55.4944, 55.5056, 54, 49.9889
40.5056, 35.5056, 56, 48.9889
55.5056, 52, 40, 45.4944
45.0111, 51.4944, 67.4944, 28.0111
50, 38, 42, 47
46.4944, 36.5056, 37, 60
43, 53, 41, 37.4833
49.5167, 29.4944, 54.5056, 37
45, 38, 40.4944, 53
37, 47.5056, 45, 63
50, 28.4944, 52.5056, 48.9889
67.0111, 46.4944, 33.5056, 52.4944
45, 42.5056, 53.4944, 49
59.5056, 47, 56, 34.9889
52.5056, 49, 37.5056, 36
49, 51.4944, 47, 34.5056
39.4944, 37, 39.4944, 48.5056
57.9889, 44.0111, 47, 34.4944
42.5056, 62.5056, 39.4944, 37.4944
29, 48.0111, 33, 33.9778
44.5167, 40, 45.4944, 53
58.5056, 35.4944, 27.5056, 54
46, 40.9889, 36.5056, 45.5056
28, 36.5056, 25, 32.4944
35.5056, 37, 22, 37
35, 30, 16, 31.9889
51.5056, 38.4944, 41.5056, 36
35.5056, 48.9889, 36, 32.5056
50.5056, 31.4944, 52.9889, 55.5167
46.4944, 34.5056, 35, 26
26, 38.4944, 31, 38
49.4944, 52, 31.5056, 39
34.5056, 33.4944, 30.5056, 35.4944
41, 29.5056, 33, 41.4944
42, 32.5056, 43, 25.4833
34.0111, 34, 40.5056, 38.4833
36.0111, 38, 19.5056, 46.4944
42.9889, 26.5167, 37, 29
35
*END

*EOF

File: 22126_LCON_XRR_2-Theta_Omega.asc
*TYPE		=  Raw
*CLASS		=  ASCII CLASS
*SAMPLE		=
*COMMENT	=
*FNAME		=  22126_LCON_XRR_2-Theta_Omega.asc
*DATE		=  23-Aug-22 12:05

*GROUP_COUNT	=  1
*GONIO		=  SmartLab(In-plane), 0.000000
*ATTACHMENT	=  Z-Phi Stage
*ASC		=  0, 0, 0.000000, 0.000000
*I_MONOCHRO	=  Ge(220)x2, 0.000000
*FILTER		=  None
*C_MONOCHRO	=  None, 0.000000
*SLIT_NAME	=  0, Incident slit
*SLIT_NAME	=  1, Receiving slit # 1
*SLIT_NAME	=  2, Receiving slit # 2
*COUNTER	=  D/teX Ultra 250, 0
*POS_FORMAT	=  0
*SCAN_AXIS	=  2Theta/Omega
*MEAS_MODE	=  Continuous Scanning
*TARGET		=  29
*XRAY_CHAR	=  K-ALPHA1
*WAVE_LENGTH1	=  1.54059
*WAVE_LENGTH2	=  1.54441
*THICKNESS	=  0, 0.000000
*MU		=  0, 0.000000
*SCAN_MODE	=  2Theta/Omega
*SPEED_DIM	=  sec./step
*XUNIT		=  deg.
*YUNIT		=  counts
*SCALE_MODE	=  1
*REP_COUNT	=  0
*SE_COUNT	=  0
*STD_MATERIAL	=  Unknown, Unknown, 0.000000, 0.000000, 0.000000, 0.000000, 0.000000, 0.000000
*LATT_CONS	=  0, Unknown, Unknown, 0.000000, 0.000000, 0.000000, 0.000000, 0.000000, 0.000000
*SEC_COUNT	=  1
*TSPEC_SIZE	=  0
*EXTRA_SIZE	=  0
*MEMO		=

*BEGIN
*GROUP		=  0
*START		=  0.4
*STOP		=  4.5
*STEP		=  0.01
*OFFSET		=  -0.002100
*SPEED		=  23.9588
*SLIT_SPEC	=  0, 1.000mm, 1, 0.000000
*SLIT_SPEC	=  1, 1.000mm, 1, 0.000000
*SLIT_SPEC	=  2, 1.000mm, 1, 0.000000
*KV		=  40
*MA		=  30
*LOW		=  0.000000
*HIGH		=  0.000000
*CTEMPER	=  0, 0.000000
*CTEMPER	=  1, 0.000000
*CTEMPER	=  2, 0.000000
*PAREX		=  0, 0.000000
*PAREX		=  1, 0.000000
*PAREX		=  2, 0.000000
*PAREX		=  3, 0.000000
*PAREX		=  4, 0.000000
*PAREX		=  5, 0.000000
*PAREX		=  6, 0.000000
*PAREX		=  7, 0.000000
*PAREX		=  8, 0.000000
*PAREX		=  9, 0.000000
*PAREX		=  10, 0.000000
*PAREX		=  11, 0.000000
*PAREX		=  12, 0.000000
*PAREX		=  13, 0.000000
*PAREX		=  14, 0.000000
*PAREX		=  15, 0.000000
*FULL_SCALE	=  242208
*INDEX		=  0, 0, 0
*COUNT		=  411
3934820.8, 4009590.5, 4076726.5, 4141912.5
4213391, 4280238.5, 4337977.5, 4399676
4456570, 4509447.5, 4561081.5, 4612395
4653720, 4692405.5, 4726629, 4753450
4775334.5, 4790891, 4796010, 4798708
4789086.5, 4764642.5, 4728902.5, 4677874.5
4607358.5, 4520633.5, 4414377, 4277841.5
4119981.3, 3929765.8, 3706253.8, 3451950.8
3165912.8, 2857839.3, 2538180.3, 2228821.8
1934979.3, 1681022.3, 1465998.3, 1292035.1
1156689.1, 1048972.1, 964944, 900039
844550, 799748, 761363, 726803
693483, 661665, 629006, 599001
565604, 536672, 505119, 476046
447465, 419674, 390947, 365038
340974, 317917, 295953, 275072
256032, 238644, 222672, 207879
194311, 182649, 171111, 161996
153130, 145547, 139178, 133782
128731, 123954, 120308, 117860
114446, 111548, 108858, 107583
105295, 104449, 102039, 100811
99387, 97655.5, 96215, 94168
92330.5, 90324.5, 87832.5, 86730.5
83891, 81689.5, 79913.5, 76700.5
74966.5, 71739.5, 69520, 66547
64172.5, 61780, 59092, 56349
54136.5, 51648, 49420, 47337
44996.5, 43216.5, 40763.5, 39368.5
37525, 35876, 33964, 32646
31656, 30207, 29157.5, 28082
27548.5, 26664.5, 26223, 25685
25038, 24659.5, 24180.5, 24352.5
23857, 23643.5, 23569.5, 23206.5
23173, 22942, 22851.5, 22526
22508.5, 22425.5, 22315.5, 22161.5
21726, 21528, 21240, 20936.5
20807, 20269.5, 19804.5, 19440.5
18964.5, 18599, 18061.5, 17686
17356.5, 17008, 16433.5, 15867.5
15322.5, 14949.5, 14418, 13526
13435.5, 12727, 12470, 11816.5
11454, 11108.5, 10690.5, 10161.5
10028, 9638.5, 9373.5, 8948.5
8583, 8483.5, 8176.5, 7961.5
7917, 7677, 7679.5, 7566.5
7284.5, 7250.5, 7134.5, 7166.5
7204.5, 6948, 6979, 6880.5
6975, 6965.5, 7001.5, 6884.5
6797.5, 6979, 6766, 6859.5
6614, 6674, 6625.5, 6744.5
6493, 6497, 6301.5, 6441
6054, 6133.5, 5984, 5838
5801, 5624, 5501, 5479.5
5339.5, 5261, 4959, 4847
4761.5, 4586, 4513, 4562.5
4194, 4180.5, 3961.5, 3941
3833.5, 3848, 3685, 3595.5
3490.5, 3464, 3342, 3245.5
3064.5, 3227, 2970, 3046
3035.5, 2925, 2817.5, 2894.5
2932, 2855, 2845.5, 2668
2850.5, 2869.5, 2843, 2879.5
2755, 2910.5, 2896, 2904.5
2861.5, 2806, 2753.5, 2739
2795, 2689.5, 2658.5, 2660.5
2722, 2645, 2615, 2565.5
2641, 2540.5, 2499, 2579
2474, 2317.5, 2306, 2338
2383.5, 2174, 2233.5, 2123.5
2113, 2009, 1912.5, 2041.5
1921.5, 1998.5, 1839.5, 1801.5
1808.5, 1807.5, 1660, 1760.5
1680.5, 1630.5, 1639, 1563
1607.5, 1588, 1604.5, 1591.5
1489.5, 1531.5, 1536.5, 1561
1577, 1476.5, 1542.5, 1469
1494, 1540.5, 1525, 1512.5
1509.5, 1483, 1518.5, 1476
1489, 1482, 1492.5, 1489
1494, 1426, 1436.5, 1381.5
1462.5, 1477.5, 1419, 1338.5
1424, 1391, 1332, 1362.5
1286, 1223, 1334.5, 1297.5
1222.5, 1203.5, 1227.5, 1237.5
1189.5, 1228.5, 1210, 1172
1173, 1113.5, 1108, 1073.5
1027.5, 1101, 1001, 1083.5
1057, 1047, 974.999, 974.5
1040, 975.5, 1011, 999.5
974.5, 976.5, 906, 880.5
929.5, 921, 963.5, 954.5
937.5, 976, 920, 898.5
961, 894, 967, 910.5
915.5, 942, 990.5, 961.5
944, 909, 908, 922.5
919.5, 955.5, 918, 873.5
824, 900, 873, 886.5
889.5, 807, 811.5, 788.5
786, 807, 797.5, 797.5
819.5, 777.5, 816, 748
808.5, 812.5, 753.5, 693
743, 736.5, 688.001
*END

*EOF