Folder: Analysis/XRD:XRR/LCO/22125_LCOT

File: 22125_LCOT_XRD_002.csv
#twotheta, yobs, ycal, bkg, diff
42.0,6.4944,1.0,1.0,1.0
42.04,18.0,1.0,1.0,1.0
42.08,8.0,1.0,1.0,1.0
42.12,10.5056,1.0,1.0,1.0
42.16,13.0,1.0,1.0,1.0
42.2,16.0,1.0,1.0,1.0
42.24,14.4944,1.0,1.0,1.0
42.28,7.0,1.0,1.0,1.0
42.32,13.0,1.0,1.0,1.0
42.36,13.0,1.0,1.0,1.0
42.4,7.0,1.0,1.0,1.0
42.44,20.5056,1.0,1.0,1.0
42.48,17.0,1.0,1.0,1.0
42.52,13.5056,1.0,1.0,1.0
42.56,22.0,1.0,1.0,1.0
42.6,15.0,1.0,1.0,1.0
42.64,26.0,1.0,1.0,1.0
42.68,13.0,1.0,1.0,1.0
42.72,15.0,1.0,1.0,1.0
42.76,19.5056,1.0,1.0,1.0
42.8,12.5056,1.0,1.0,1.0
42.84,32.0111,1.0,1.0,1.0
42.88,26.0,1.0,1.0,1.0
42.92,25.4944,1.0,1.0,1.0
42.96,29.0,1.0,1.0,1.0
43.0,16.5056,1.0,1.0,1.0
43.04,18.4944,1.0,1.0,1.0
43.08,15.0111,1.0,1.0,1.0
43.12,12.0,1.0,1.0,1.0
43.16,23.4944,1.0,1.0,1.0
43.2,39.0,1.0,1.0,1.0
43.24,18.0111,1.0,1.0,1.0
43.28,42.4944,1.0,1.0,1.0
43.32,43.5167,1.0,1.0,1.0
43.36,30.0,1.0,1.0,1.0
43.4,12.0,1.0,1.0,1.0
43.44,14.0,1.0,1.0,1.0
43.48,26.4944,1.0,1.0,1.0
43.52,42.5056,1.0,1.0,1.0
43.56,23.0,1.0,1.0,1.0
43.6,39.0111,1.0,1.0,1.0
43.64,30.4944,1.0,1.0,1.0
43.68,25.4944,1.0,1.0,1.0
43.72,27.0,1.0,1.0,1.0
43.76,12.0,1.0,1.0,1.0
43.8,25.4944,1.0,1.0,1.0
43.84,35.4944,1.0,1.0,1.0
43.88,39.5278,1.0,1.0,1.0
43.92,52.4944,1.0,1.0,1.0
43.96,44.4944,1.0,1.0,1.0
44.0,27.5056,1.0,1.0,1.0
44.04,23.0,1.0,1.0,1.0
44.08,28.9889,1.0,1.0,1.0
44.12,44.9889,1.0,1.0,1.0
44.16,49.5056,1.0,1.0,1.0
44.2,46.5056,1.0,1.0,1.0
44.24,61.4833,1.0,1.0,1.0
44.28,81.5056,1.0,1.0,1.0
44.32,48.0,1.0,1.0,1.0
44.36,43.9889,1.0,1.0,1.0
44.4,26.0,1.0,1.0,1.0
44.44,30.9889,1.0,1.0,1.0
44.48,68.5056,1.0,1.0,1.0
44.52,58.0111,1.0,1.0,1.0
44.56,86.0111,1.0,1.0,1.0
44.6,78.0,1.0,1.0,1.0
44.64,56.4944,1.0,1.0,1.0
44.68,38.4944,1.0,1.0,1.0
44.72,38.0,1.0,1.0,1.0
44.76,38.4944,1.0,1.0,1.0
44.8,77.4944,1.0,1.0,1.0
44.84,102.0111,1.0,1.0,1.0
44.88,151.4944,1.0,1.0,1.0
44.92,130.9889,1.0,1.0,1.0
44.96,122.0111,1.0,1.0,1.0
45.0,73.5167,1.0,1.0,1.0
45.04,41.5056,1.0,1.0,1.0
45.08,48.0,1.0,1.0,1.0
45.12,102.5056,1.0,1.0,1.0
45.16,154.0,1.0,1.0,1.0
45.2,202.9778,1.0,1.0,1.0
45.24,226.4944,1.0,1.0,1.0
45.28,228.4722,1.0,1.0,1.0
45.32,119.5056,1.0,1.0,1.0
45.36,78.0,1.0,1.0,1.0
45.4,58.4944,1.0,1.0,1.0
45.44,171.0,1.0,1.0,1.0
45.48,206.0,1.0,1.0,1.0
45.52,366.0111,1.0,1.0,1.0
45.56,363.4722,1.0,1.0,1.0
45.6,338.0333,1.0,1.0,1.0
45.64,219.0,1.0,1.0,1.0
45.68,98.5056,1.0,1.0,1.0
45.72,59.9889,1.0,1.0,1.0
45.76,198.4833,1.0,1.0,1.0
45.8,409.9889,1.0,1.0,1.0
45.84,652.9667,1.0,1.0,1.0
45.88,813.4722,1.0,1.0,1.0
45.92,786.0444,1.0,1.0,1.0
45.96,562.55,1.0,1.0,1.0
46.0,274.5167,1.0,1.0,1.0
46.04,87.0,1.0,1.0,1.0
46.08,231.0,1.0,1.0,1.0
46.12,890.0333,1.0,1.0,1.0
46.16,1880.0,1.0,1.0,1.0
46.2,2986.49,1.0,1.0,1.0
46.24,3557.51,1.0,1.0,1.0
46.28,3676.45,1.0,1.0,1.0
46.32,3182.02,1.0,1.0,1.0
46.36,4243.53,1.0,1.0,1.0
46.4,24167.3,1.0,1.0,1.0
46.44,239049,1.0,1.0,1.0
46.48,2177202.75,1.0,1.0,1.0
46.52,8433496.0,1.0,1.0,1.0
46.56,150298,1.0,1.0,1.0
46.6,33603.9,1.0,1.0,1.0
46.64,33716.8,1.0,1.0,1.0
46.68,47510.9,1.0,1.0,1.0
46.72,64817.3,1.0,1.0,1.0
46.76,81144.1,1.0,1.0,1.0
46.8,93339.8,1.0,1.0,1.0
46.84,98300.1,1.0,1.0,1.0
46.88,96252.6,1.0,1.0,1.0
46.92,86770.9,1.0,1.0,1.0
46.96,71016.6,1.0,1.0,1.0
47.0,53655.4,1.0,1.0,1.0
47.04,36166.8,1.0,1.0,1.0
47.08,21199.7,1.0,1.0,1.0
47.12,9993.2,1.0,1.0,1.0
47.16,3601.04,1.0,1.0,1.0
47.2,736.0333,1.0,1.0,1.0
47.24,544.5056,1.0,1.0,1.0
47.28,1690.89,1.0,1.0,1.0
47.32,2523.49,1.0,1.0,1.0
47.36,2915.45,1.0,1.0,1.0
47.4,2529.52,1.0,1.0,1.0
47.44,1742.07,1.0,1.0,1.0
47.48,860.5167,1.0,1.0,1.0
47.52,281.5278,1.0,1.0,1.0
47.56,164.5167,1.0,1.0,1.0
47.6,312.0,1.0,1.0,1.0
47.64,633.45,1.0,1.0,1.0
47.68,869.0111,1.0,1.0,1.0
47.72,848.0,1.0,1.0,1.0
47.76,614.5056,1.0,1.0,1.0
47.8,396.9889,1.0,1.0,1.0
47.84,149.5056,1.0,1.0,1.0
47.88,84.4944,1.0,1.0,1.0
47.92,128.0222,1.0,1.0,1.0
47.96,233.0,1.0,1.0,1.0
48.0,359.9889,1.0,1.0,1.0
48.04,352.5167,1.0,1.0,1.0
48.08,347.0111,1.0,1.0,1.0
48.12,207.4722,1.0,1.0,1.0
48.16,126.9778,1.0,1.0,1.0
48.2,72.0,1.0,1.0,1.0
48.24,69.4833,1.0,1.0,1.0
48.28,123.9778,1.0,1.0,1.0
48.32,164.9778,1.0,1.0,1.0
48.36,186.9889,1.0,1.0,1.0
48.4,172.0111,1.0,1.0,1.0
48.44,130.0,1.0,1.0,1.0
48.48,82.4833,1.0,1.0,1.0
48.52,51.5056,1.0,1.0,1.0
48.56,47.0,1.0,1.0,1.0
48.6,69.4944,1.0,1.0,1.0
48.64,92.4944,1.0,1.0,1.0
48.68,93.5167,1.0,1.0,1.0
48.72,92.0,1.0,1.0,1.0
48.76,80.0,1.0,1.0,1.0
48.8,47.4833,1.0,1.0,1.0
48.84,21.0,1.0,1.0,1.0
48.88,18.4944,1.0,1.0,1.0
48.92,21.0111,1.0,1.0,1.0
48.96,66.4833,1.0,1.0,1.0
49.0,46.4944,1.0,1.0,1.0
49.04,59.5167,1.0,1.0,1.0
49.08,46.4944,1.0,1.0,1.0
49.12,44.4944,1.0,1.0,1.0
49.16,17.4944,1.0,1.0,1.0
49.2,20.0,1.0,1.0,1.0
49.24,28.0,1.0,1.0,1.0
49.28,34.0,1.0,1.0,1.0
49.32,29.0111,1.0,1.0,1.0
49.36,35.4944,1.0,1.0,1.0
49.4,23.0,1.0,1.0,1.0
49.44,23.4944,1.0,1.0,1.0
49.48,26.4944,1.0,1.0,1.0
49.52,19.4944,1.0,1.0,1.0
49.56,15.4944,1.0,1.0,1.0
49.6,13.0,1.0,1.0,1.0
49.64,30.0111,1.0,1.0,1.0
49.68,26.9889,1.0,1.0,1.0
49.72,30.0,1.0,1.0,1.0
49.76,19.5056,1.0,1.0,1.0
49.8,18.0,1.0,1.0,1.0
49.84,16.0,1.0,1.0,1.0
49.88,12.0,1.0,1.0,1.0
49.92,21.0,1.0,1.0,1.0
49.96,6.4944,1.0,1.0,1.0
50.0,15.5056,1.0,1.0,1.0
50.04,14.0,1.0,1.0,1.0
50.08,6.0,1.0,1.0,1.0
50.12,9.0,1.0,1.0,1.0
50.16,13.0,1.0,1.0,1.0
50.2,9.0,1.0,1.0,1.0
50.24,9.0,1.0,1.0,1.0
50.28,13.0,1.0,1.0,1.0
50.32,14.0,1.0,1.0,1.0
50.36,16.5056,1.0,1.0,1.0
50.4,10.0,1.0,1.0,1.0
50.44,7.0,1.0,1.0,1.0
50.48,8.4944,1.0,1.0,1.0
50.52,16.0,1.0,1.0,1.0
50.56,8.0,1.0,1.0,1.0
50.6,14.0,1.0,1.0,1.0
50.64,2.0,1.0,1.0,1.0
50.68,14.4944,1.0,1.0,1.0
50.72,6.0,1.0,1.0,1.0
50.76,6.0,1.0,1.0,1.0
50.8,4.0,1.0,1.0,1.0
50.84,5.0,1.0,1.0,1.0
50.88,10.5056,1.0,1.0,1.0
50.92,15.0,1.0,1.0,1.0
50.96,6.4944,1.0,1.0,1.0
51.0,6.5167,1.0,1.0,1.0
51.04,5.0,1.0,1.0,1.0
51.08,10.0,1.0,1.0,1.0
51.12,9.0,1.0,1.0,1.0
51.16,6.0,1.0,1.0,1.0
51.2,4.0,1.0,1.0,1.0
51.24,0.0,1.0,1.0,1.0
51.28,5.0,1.0,1.0,1.0
51.32,5.4944,1.0,1.0,1.0
51.36,6.0,1.0,1.0,1.0
51.4,4.0,1.0,1.0,1.0
51.44,7.0,1.0,1.0,1.0
51.48,4.0,1.0,1.0,1.0
51.52,6.0,1.0,1.0,1.0
51.56,5.0,1.0,1.0,1.0
51.6,8.0,1.0,1.0,1.0
51.64,6.0,1.0,1.0,1.0
51.68,4.0,1.0,1.0,1.0
51.72,6.0,1.0,1.0,1.0
51.76,5.0,1.0,1.0,1.0
51.8,3.0,1.0,1.0,1.0
51.84,0.0,1.0,1.0,1.0
51.88,5.0,1.0,1.0,1.0
51.92,4.0,1.0,1.0,1.0
51.96,3.0,1.0,1.0,1.0
52.0,7.0,1.0,1.0,1.0

File: 22125_LCOT_XRD_002_2-Theta_Omega.asc
*TYPE		=  Raw
*CLASS		=  ASCII CLASS
*SAMPLE		=
*COMMENT	=
*FNAME		=  22125_LCOT_XRD_002_2-Theta_Omega.asc
*DATE		=  19-Aug-22 00:22

*GROUP_COUNT	=  1
*GONIO		=  SmartLab(In-plane), 0.000000
*ATTACHMENT	=  Z-Phi Stage
*ASC		=  0, 0, 0.000000, 0.000000
*I_MONOCHRO	=  Ge(220)x2, 0.000000
*FILTER		=  None
*C_MONOCHRO	=  None, 0.000000
*SLIT_NAME	=  0, Incident slit
*SLIT_NAME	=  1, Receiving slit # 1
*SLIT_NAME	=  2, Receiving slit # 2
*COUNTER	=  D/teX Ultra 250, 0
*POS_FORMAT	=  0
*SCAN_AXIS	=  2Theta/Omega
*MEAS_MODE	=  Continuous Scanning
*TARGET		=  29
*XRAY_CHAR	=  K-ALPHA1
*WAVE_LENGTH1	=  1.54059
*WAVE_LENGTH2	=  1.54441
*THICKNESS	=  0, 0.000000
*MU		=  0, 0.000000
*SCAN_MODE	=  2Theta/Omega
*SPEED_DIM	=  sec./step
*XUNIT		=  deg.
*YUNIT		=  counts
*SCALE_MODE	=  1
*REP_COUNT	=  0
*SE_COUNT	=  0
*STD_MATERIAL	=  Unknown, Unknown, 0.000000, 0.000000, 0.000000, 0.000000, 0.000000, 0.000000
*LATT_CONS	=  0, Unknown, Unknown, 0.000000, 0.000000, 0.000000, 0.000000, 0.000000, 0.000000
*SEC_COUNT	=  1
*TSPEC_SIZE	=  0
*EXTRA_SIZE	=  0
*MEMO		=

*BEGIN
*GROUP		=  0
*START		=  42
*STOP		=  52
*STEP		=  0.01
*OFFSET		=  -0.197200
*SPEED		=  23.9588
*SLIT_SPEC	=  0, 0.400mm, 0.4, 0.000000
*SLIT_SPEC	=  1, 0.400mm, 0.4, 0.000000
*SLIT_SPEC	=  2, 0.400mm, 0.4, 0.000000
*KV		=  40
*MA		=  30
*LOW		=  0.000000
*HIGH		=  0.000000
*CTEMPER	=  0, 0.000000
*CTEMPER	=  1, 0.000000
*CTEMPER	=  2, 0.000000
*PAREX		=  0, 0.000000
*PAREX		=  1, 0.000000
*PAREX		=  2, 0.000000
*PAREX		=  3, 0.000000
*PAREX		=  4, 0.000000
*PAREX		=  5, 0.000000
*PAREX		=  6, 0.000000
*PAREX		=  7, 0.000000
*PAREX		=  8, 0.000000
*PAREX		=  9, 0.000000
*PAREX		=  10, 0.000000
*PAREX		=  11, 0.000000
*PAREX		=  12, 0.000000
*PAREX		=  13, 0.000000
*PAREX		=  14, 0.000000
*PAREX		=  15, 0.000000
*FULL_SCALE	=  1536948.1
*INDEX		=  0, 0, 0
*COUNT		=  1001
6.49445, 5.50555, 6, 7
18, 11, 19, 16
8, 13, 9, 15.4944
10.5056, 14, 4, 6
13, 12, 5, 12
16, 15, 9, 20
14.4944, 9.50555, 15, 7
7, 5, 23, 14
13, 17, 21, 8
13, 22, 17.4944, 8.50555
7, 19, 16, 13.4944
20.5056, 7.49445, 10.5056, 13
17, 13, 9, 11.4944
13.5056, 9, 19, 11
22, 17, 20, 23
15, 19, 25.9889, 26.0111
26, 23, 20, 11
13, 17.9889, 22.0111, 9
15, 13, 10, 20.4944
19.5056, 17, 26, 14.4944
12.5056, 12, 7, 11.9889
32.0111, 12, 24, 18
26, 24, 12.4944, 23.5056
25.4944, 19.5056, 24.4944, 20.5056
29, 37, 23, 24.4944
16.5056, 19, 19.4944, 10.5056
18.4944, 20.5056, 18, 25.9889
15.0111, 14, 13.4944, 15.5056
12, 14.4944, 16.4944, 16.0111
23.4944, 30, 28.5056, 13.4944
39, 29.5056, 19, 24.9889
18.0111, 27, 34.4944, 50
42.4944, 30.5056, 46.4944, 30.4944
43.5167, 19, 30.4944, 26.5056
30, 22.4944, 27.5056, 23.9889
12, 27.5056, 17.5056, 14
14, 22, 10, 37
26.4944, 20.5056, 24, 25.9889
42.5056, 26.5056, 21, 44.4944
23, 27.5056, 40, 27.9889
39.0111, 26, 36.4944, 32.5056
30.4944, 24.5056, 36.4944, 31.5056
25.4944, 34.4944, 46.5056, 17.4944
27, 25.0111, 33.4944, 15.5056
12, 28.4944, 17.5056, 12
25.4944, 31.5056, 24.4944, 40.5056
35.4944, 48, 44.5056, 42.4722
39.5278, 35.4944, 50.5056, 54
52.4944, 62, 63, 55.5056
44.4944, 65, 28.5056, 43.4944
27.5056, 29, 41.4944, 39.5056
23, 27, 17, 43.4944
28.9889, 18.5167, 42, 27.4944
44.9889, 40, 51.0111, 52.4944
49.5056, 43.5056, 46.9889, 56
46.5056, 59, 36.9889, 76.5167
61.4833, 64.5167, 66, 53.4833
81.5056, 52, 45.0111, 52
48, 52.4944, 61.4944, 55.0111
43.9889, 23.5056, 26.5056, 43
26, 30, 42.4944, 36
30.9889, 29.0111, 60, 21
68.5056, 79.4833, 58.0111, 62.4944
58.0111, 81.9889, 101.506, 82.9889
86.0111, 96.4944, 113.483, 93.5167
78, 97.4944, 76.5056, 91.0111
56.4944, 79, 58.5056, 68.9889
38.4944, 40.5167, 39.9889, 33.0111
38, 33.4944, 38.5056, 38
38.4944, 47, 42.4944, 52.5056
77.4944, 85.0111, 69.4944, 73.4944
102.011, 96.4833, 133.517, 138.989
151.494, 105.506, 133.011, 117
130.989, 125.494, 129.011, 136.989
122.011, 113.989, 83.5056, 73.9889
73.5167, 70, 53.5056, 26.4944
41.5056, 51.4944, 39.4944, 50.0111
48, 48.4944, 87.4944, 110.494
102.506, 124.011, 104.483, 151
154, 170.989, 183, 207.517
202.978, 203.011, 228.483, 220.528
226.494, 189.506, 213.989, 204.011
228.472, 158.517, 163, 112.011
119.506, 95.4944, 78.4944, 84.0111
78, 42.5056, 34, 41
58.4944, 86.5056, 90, 81.9889
171, 163.989, 192.011, 180.483
206, 259, 288.506, 323.989
366.011, 341.461, 363.539, 383.989
363.472, 361.033, 391.989, 350.978
338.033, 312.506, 274.483, 285.506
219, 186.011, 143.506, 128.506
98.5056, 67, 51, 81.5056
59.9889, 110.989, 124.011, 135
198.483, 206.494, 275.506, 361.494
409.989, 460.494, 547.989, 566.517
652.967, 670.494, 742.494, 749.022
813.472, 809.528, 821.461, 826.978
786.044, 794.989, 695, 636.494
562.55, 476.011, 385.472, 350.539
274.517, 166.483, 158, 110.528
87, 74.9778, 127.517, 144.978
231, 383.978, 479.494, 684.439
890.033, 1081.98, 1307.94, 1572.48
1880, 2128.89, 2435.94, 2698.03
2986.49, 3135.45, 3408.97, 3469.02
3557.51, 3686.96, 3691.08, 3683.93
3676.45, 3508.54, 3450.06, 3274.51
3182.02, 3124.99, 3213.48, 3699.37
4243.53, 5773.74, 8670.44, 13763.4
24167.3, 46460, 89136.3, 153905
239049, 362950, 558309, 934192
2177202.8, 11674201, 23417966, 26401126
8433496, 1183785.6, 447899, 241519
150298, 92706.5, 57999.1, 40711.1
33603.9, 30986.7, 30556.3, 30999.8
33716.8, 36366.3, 39692.7, 43728.1
47510.9, 51890.4, 56056.3, 61405.1
64817.3, 69216.1, 72994.2, 77420.5
81144.1, 84948.3, 87979.9, 90558.9
93339.8, 95107.4, 96317.2, 98176.1
98300.1, 98198.6, 98539.3, 97699.1
96252.6, 94025.1, 91693.8, 89901.2
86770.9, 82759.1, 79860, 75812.7
71016.6, 67089.9, 62757.7, 58531.1
53655.4, 49256.4, 44365, 40283.7
36166.8, 31720.4, 28229.8, 23998
21199.7, 17988.8, 14928.5, 12179.7
9993.2, 7916.12, 6340.33, 4780.16
3601.04, 2423.09, 1706.59, 1129.03
736.033, 510.539, 455.978, 442.506
544.506, 799.461, 1053.41, 1305.06
1690.89, 1951.96, 2108.55, 2432.92
2523.49, 2819.91, 2913.03, 2918.54
2915.45, 2887.52, 2891.07, 2754.49
2529.52, 2429.02, 2206.59, 1957.92
1742.07, 1515, 1300.04, 1054.53
860.517, 704.539, 506.483, 377.022
281.528, 201.483, 189.011, 138
164.517, 161.483, 227.506, 269.989
312, 407.461, 470.506, 529.022
633.45, 677.517, 786.483, 854.989
869.011, 866.472, 834.517, 845.989
848, 829.033, 750.978, 707.067
614.506, 635.45, 499.561, 481.494
396.989, 340.011, 267.011, 203
149.506, 132, 126.494, 88
84.4944, 107, 95, 100.989
128.022, 152.494, 180, 170.494
233, 270.978, 267.011, 317
359.989, 367.967, 344.55, 366.494
352.517, 365.461, 317.506, 355.989
347.011, 308.506, 309.011, 253.022
207.472, 162.022, 165, 137.494
126.978, 108.528, 50.4944, 77.5056
72, 58.5056, 57, 52.5056
69.4833, 73.5056, 87.9889, 96.5167
123.978, 82.0222, 142.989, 134.011
164.978, 142.517, 134.506, 171.483
186.989, 187.033, 153.494, 166.483
172.011, 173.483, 137.517, 133.494
130, 112.506, 112.506, 82
82.4833, 59.0222, 36, 46.4944
51.5056, 52, 43.4833, 31.5167
47, 37, 58.4944, 46.4944
69.4944, 68.5167, 86.4722, 80.5278
92.4944, 108.989, 113.506, 77.4944
93.5167, 96, 97.4833, 117.506
92, 91, 75.4944, 79.0111
80, 69.5056, 56.9889, 59.5056
47.4833, 58, 54.5167, 27
21, 46.5056, 33, 34
18.4944, 32.4944, 28.0111, 36.9889
21.0111, 57.4944, 27, 33.5056
66.4833, 64.9889, 132.022, 49.5056
46.4944, 54, 50.5056, 46.4833
59.5167, 59, 70.4944, 44
46.4944, 71.0111, 41.9889, 30.0111
44.4944, 37.5056, 30, 31
17.4944, 36, 24.5056, 21
20, 19, 22.9889, 16.5056
28, 21, 35.4944, 8.01111
34, 28, 30, 38.9889
29.0111, 45.4944, 28.4944, 38.5056
35.4944, 29.5056, 45.5056, 43
23, 34, 23, 27
23.4944, 21.5056, 20.4944, 15.5056
26.4944, 19.5056, 25.9889, 23.0111
19.4944, 21.5056, 19.4944, 10.5056
15.4944, 26, 22, 23.5056
13, 22.4833, 17.5167, 28.9889
30.0111, 21, 32.9889, 30.0111
26.9889, 23.0111, 15, 33
30, 14, 13.4944, 19
19.5056, 14, 10, 18
18, 15, 12, 16
16, 19, 18, 15
12, 14, 10, 12
21, 11, 13, 10
6.49445, 3.50555, 12.4944, 16
15.5056, 16, 4, 14
14, 7.49445, 6.50555, 11
6, 6.98889, 15.0111, 8
9, 12, 4, 10
13, 6, 8, 13
9, 11, 19, 7
9, 8, 19.4944, 5.50555
13, 6.49445, 9, 20.5056
14, 4, 10.4944, 19
16.5056, 8, 22.4944, 11.5056
10, 10, 7, 8
7, 7, 10, 7
8.49445, 13.5056, 4, 9.49445
16, 7.50555, 18, 5
8, 10, 9.49445, 10.5056
14, 2, 6, 6
2, 10, 7, 6
14.4944, 12.5056, 8, 8
6, 8, 11, 9
6, 0.000000, 9, 7
4, 13, 17, 2
5, 13, 4, 10.4944
10.5056, 10, 7, 7
15, 11, 8, 6
6.49445, 9.50555, 19, 6.48334
6.51666, 2, 6, 8
5, 0.000000, 2, 10
10, 5, 0.000000, 8
9, 8, 8, 5
6, 7, 12, 4
4, 0.000000, 6, 3
0.000000, 9, 4, 6
5, 1.98889, 3.01111, 5
5.49445, 7.50555, 2, 8
6, 2, 0.000000, 3
4, 2, 8, 10
7, 0.000000, 0.000000, 3
4, 4.49445, 8.50555, 10
6, 3, 5, 4
5, 2.49445, 4.50555, 4
8, 7, 4, 2
6, 4, 2, 0.000000
4, 2, 6, 10
6, 6, 5.49445, 9.50555
5, 2, 0.000000, 6
3, 9, 0.000000, 7
0.000000, 4, 4, 10
5, 2, 8, 18
4, 2, 3.98889, 5.01111
3, 2, 10, 8
7
*END

*EOF