Folder: Analysis/XRD:XRR/LCO/22130_LCOA

File: 22130_LCOA_XRD_002.csv
#twotheta, yobs, ycal, bkg, diff
42.0,20.0,1.0,1.0,1.0
42.04,15.0,1.0,1.0,1.0
42.08,20.0,1.0,1.0,1.0
42.12,12.5056,1.0,1.0,1.0
42.16,22.5056,1.0,1.0,1.0
42.2,21.0,1.0,1.0,1.0
42.24,30.0,1.0,1.0,1.0
42.28,20.5056,1.0,1.0,1.0
42.32,17.0,1.0,1.0,1.0
42.36,20.0,1.0,1.0,1.0
42.4,16.9778,1.0,1.0,1.0
42.44,20.5056,1.0,1.0,1.0
42.48,21.0,1.0,1.0,1.0
42.52,25.0,1.0,1.0,1.0
42.56,30.5056,1.0,1.0,1.0
42.6,20.0,1.0,1.0,1.0
42.64,32.0,1.0,1.0,1.0
42.68,27.5056,1.0,1.0,1.0
42.72,28.4944,1.0,1.0,1.0
42.76,18.5056,1.0,1.0,1.0
42.8,24.0,1.0,1.0,1.0
42.84,16.4944,1.0,1.0,1.0
42.88,13.0,1.0,1.0,1.0
42.92,14.0111,1.0,1.0,1.0
42.96,22.0,1.0,1.0,1.0
43.0,15.0,1.0,1.0,1.0
43.04,27.5056,1.0,1.0,1.0
43.08,18.4944,1.0,1.0,1.0
43.12,28.4944,1.0,1.0,1.0
43.16,30.0,1.0,1.0,1.0
43.2,12.5056,1.0,1.0,1.0
43.24,22.5056,1.0,1.0,1.0
43.28,41.9889,1.0,1.0,1.0
43.32,35.5056,1.0,1.0,1.0
43.36,47.4944,1.0,1.0,1.0
43.4,17.0,1.0,1.0,1.0
43.44,27.5056,1.0,1.0,1.0
43.48,20.5056,1.0,1.0,1.0
43.52,32.5056,1.0,1.0,1.0
43.56,23.0,1.0,1.0,1.0
43.6,32.5056,1.0,1.0,1.0
43.64,43.0,1.0,1.0,1.0
43.68,23.0,1.0,1.0,1.0
43.72,26.4944,1.0,1.0,1.0
43.76,26.0,1.0,1.0,1.0
43.8,29.0,1.0,1.0,1.0
43.84,26.5056,1.0,1.0,1.0
43.88,22.5056,1.0,1.0,1.0
43.92,26.5056,1.0,1.0,1.0
43.96,46.5056,1.0,1.0,1.0
44.0,44.4944,1.0,1.0,1.0
44.04,47.5056,1.0,1.0,1.0
44.08,32.0,1.0,1.0,1.0
44.12,41.9889,1.0,1.0,1.0
44.16,26.4944,1.0,1.0,1.0
44.2,27.0111,1.0,1.0,1.0
44.24,45.5056,1.0,1.0,1.0
44.28,29.4944,1.0,1.0,1.0
44.32,20.9889,1.0,1.0,1.0
44.36,36.0,1.0,1.0,1.0
44.4,34.0,1.0,1.0,1.0
44.44,38.5056,1.0,1.0,1.0
44.48,26.5056,1.0,1.0,1.0
44.52,32.0,1.0,1.0,1.0
44.56,45.5056,1.0,1.0,1.0
44.6,41.5056,1.0,1.0,1.0
44.64,48.5056,1.0,1.0,1.0
44.68,43.0,1.0,1.0,1.0
44.72,55.0,1.0,1.0,1.0
44.76,55.0,1.0,1.0,1.0
44.8,57.9889,1.0,1.0,1.0
44.84,47.0,1.0,1.0,1.0
44.88,41.0,1.0,1.0,1.0
44.92,36.0,1.0,1.0,1.0
44.96,32.5056,1.0,1.0,1.0
45.0,25.5056,1.0,1.0,1.0
45.04,20.4944,1.0,1.0,1.0
45.08,31.4944,1.0,1.0,1.0
45.12,37.0,1.0,1.0,1.0
45.16,51.0,1.0,1.0,1.0
45.2,80.4944,1.0,1.0,1.0
45.24,94.5167,1.0,1.0,1.0
45.28,115.0111,1.0,1.0,1.0
45.32,113.0222,1.0,1.0,1.0
45.36,139.4944,1.0,1.0,1.0
45.4,165.0222,1.0,1.0,1.0
45.44,126.4833,1.0,1.0,1.0
45.48,136.5056,1.0,1.0,1.0
45.52,122.4944,1.0,1.0,1.0
45.56,117.0222,1.0,1.0,1.0
45.6,89.0,1.0,1.0,1.0
45.64,80.9889,1.0,1.0,1.0
45.68,69.5056,1.0,1.0,1.0
45.72,72.0,1.0,1.0,1.0
45.76,134.0,1.0,1.0,1.0
45.8,157.5056,1.0,1.0,1.0
45.84,239.4611,1.0,1.0,1.0
45.88,351.4833,1.0,1.0,1.0
45.92,494.0333,1.0,1.0,1.0
45.96,675.4833,1.0,1.0,1.0
46.0,927.9445,1.0,1.0,1.0
46.04,1123.97,1.0,1.0,1.0
46.08,1378.52,1.0,1.0,1.0
46.12,1763.57,1.0,1.0,1.0
46.16,2087.97,1.0,1.0,1.0
46.2,2236.45,1.0,1.0,1.0
46.24,2412.93,1.0,1.0,1.0
46.28,2742.51,1.0,1.0,1.0
46.32,2843.92,1.0,1.0,1.0
46.36,2926.48,1.0,1.0,1.0
46.4,2862.43,1.0,1.0,1.0
46.44,2828.45,1.0,1.0,1.0
46.48,2796.51,1.0,1.0,1.0
46.52,2585.51,1.0,1.0,1.0
46.56,2296.53,1.0,1.0,1.0
46.6,2039.47,1.0,1.0,1.0
46.64,1779.51,1.0,1.0,1.0
46.68,1525.42,1.0,1.0,1.0
46.72,1259.98,1.0,1.0,1.0
46.76,992.0,1.0,1.0,1.0
46.8,793.5167,1.0,1.0,1.0
46.84,656.5278,1.0,1.0,1.0
46.88,402.0,1.0,1.0,1.0
46.92,264.9889,1.0,1.0,1.0
46.96,143.5056,1.0,1.0,1.0
47.0,127.5167,1.0,1.0,1.0
47.04,135.0,1.0,1.0,1.0
47.08,154.9778,1.0,1.0,1.0
47.12,167.9889,1.0,1.0,1.0
47.16,171.9889,1.0,1.0,1.0
47.2,191.4833,1.0,1.0,1.0
47.24,257.5056,1.0,1.0,1.0
47.28,256.0,1.0,1.0,1.0
47.32,291.4944,1.0,1.0,1.0
47.36,252.0444,1.0,1.0,1.0
47.4,241.4944,1.0,1.0,1.0
47.44,242.4833,1.0,1.0,1.0
47.48,234.5056,1.0,1.0,1.0
47.52,201.4944,1.0,1.0,1.0
47.56,214.0,1.0,1.0,1.0
47.6,159.4833,1.0,1.0,1.0
47.64,151.0,1.0,1.0,1.0
47.68,150.4833,1.0,1.0,1.0
47.72,152.0,1.0,1.0,1.0
47.76,219.5167,1.0,1.0,1.0
47.8,244.5278,1.0,1.0,1.0
47.84,232.9778,1.0,1.0,1.0
47.88,299.5056,1.0,1.0,1.0
47.92,358.0111,1.0,1.0,1.0
47.96,429.0,1.0,1.0,1.0
48.0,484.5056,1.0,1.0,1.0
48.04,542.9778,1.0,1.0,1.0
48.08,617.0333,1.0,1.0,1.0
48.12,668.0444,1.0,1.0,1.0
48.16,804.9667,1.0,1.0,1.0
48.2,974.4722,1.0,1.0,1.0
48.24,1243.48,1.0,1.0,1.0
48.28,1740.99,1.0,1.0,1.0
48.32,2527.57,1.0,1.0,1.0
48.36,4723.99,1.0,1.0,1.0
48.4,11428.1,1.0,1.0,1.0
48.44,161734,1.0,1.0,1.0
48.48,1276837.75,1.0,1.0,1.0
48.52,4578938.0,1.0,1.0,1.0
48.56,772920,1.0,1.0,1.0
48.6,170935,1.0,1.0,1.0
48.64,9073.87,1.0,1.0,1.0
48.68,3474.12,1.0,1.0,1.0
48.72,1846.54,1.0,1.0,1.0
48.76,1105.02,1.0,1.0,1.0
48.8,809.5167,1.0,1.0,1.0
48.84,626.5167,1.0,1.0,1.0
48.88,478.9778,1.0,1.0,1.0
48.92,343.4944,1.0,1.0,1.0
48.96,307.4944,1.0,1.0,1.0
49.0,253.4833,1.0,1.0,1.0
49.04,157.0111,1.0,1.0,1.0
49.08,143.0111,1.0,1.0,1.0
49.12,108.9778,1.0,1.0,1.0
49.16,91.9889,1.0,1.0,1.0
49.2,83.5056,1.0,1.0,1.0
49.24,69.4944,1.0,1.0,1.0
49.28,51.0,1.0,1.0,1.0
49.32,75.4833,1.0,1.0,1.0
49.36,48.5056,1.0,1.0,1.0
49.4,48.0,1.0,1.0,1.0
49.44,39.0,1.0,1.0,1.0
49.48,42.0,1.0,1.0,1.0
49.52,56.0,1.0,1.0,1.0
49.56,38.5056,1.0,1.0,1.0
49.6,57.0,1.0,1.0,1.0
49.64,27.4944,1.0,1.0,1.0
49.68,36.0,1.0,1.0,1.0
49.72,59.5056,1.0,1.0,1.0
49.76,34.9889,1.0,1.0,1.0
49.8,40.4944,1.0,1.0,1.0
49.84,38.4944,1.0,1.0,1.0
49.88,27.9889,1.0,1.0,1.0
49.92,41.4944,1.0,1.0,1.0
49.96,30.5167,1.0,1.0,1.0
50.0,21.4944,1.0,1.0,1.0
50.04,23.0,1.0,1.0,1.0
50.08,30.0,1.0,1.0,1.0
50.12,24.0,1.0,1.0,1.0
50.16,21.0,1.0,1.0,1.0
50.2,19.5056,1.0,1.0,1.0
50.24,24.4944,1.0,1.0,1.0
50.28,29.4833,1.0,1.0,1.0
50.32,33.4944,1.0,1.0,1.0
50.36,31.0,1.0,1.0,1.0
50.4,22.0111,1.0,1.0,1.0
50.44,24.0,1.0,1.0,1.0
50.48,30.5056,1.0,1.0,1.0
50.52,12.5056,1.0,1.0,1.0
50.56,33.5056,1.0,1.0,1.0
50.6,22.0,1.0,1.0,1.0
50.64,17.0111,1.0,1.0,1.0
50.68,20.5056,1.0,1.0,1.0
50.72,31.5056,1.0,1.0,1.0
50.76,24.0,1.0,1.0,1.0
50.8,17.0,1.0,1.0,1.0
50.84,23.0,1.0,1.0,1.0
50.88,22.0,1.0,1.0,1.0
50.92,24.9889,1.0,1.0,1.0
50.96,17.0,1.0,1.0,1.0
51.0,32.0,1.0,1.0,1.0
51.04,24.0111,1.0,1.0,1.0
51.08,20.0111,1.0,1.0,1.0
51.12,11.0,1.0,1.0,1.0
51.16,18.5056,1.0,1.0,1.0
51.2,22.0,1.0,1.0,1.0
51.24,17.0,1.0,1.0,1.0
51.28,21.0,1.0,1.0,1.0
51.32,31.4944,1.0,1.0,1.0
51.36,11.5056,1.0,1.0,1.0
51.4,23.4944,1.0,1.0,1.0
51.44,23.4944,1.0,1.0,1.0
51.48,21.0,1.0,1.0,1.0
51.52,23.9889,1.0,1.0,1.0
51.56,20.0,1.0,1.0,1.0
51.6,14.4944,1.0,1.0,1.0
51.64,16.0,1.0,1.0,1.0
51.68,18.5056,1.0,1.0,1.0
51.72,19.0,1.0,1.0,1.0
51.76,22.9889,1.0,1.0,1.0
51.8,16.9889,1.0,1.0,1.0
51.84,11.5056,1.0,1.0,1.0
51.88,17.9889,1.0,1.0,1.0
51.92,18.0111,1.0,1.0,1.0
51.96,17.0,1.0,1.0,1.0
52.0,20.0,1.0,1.0,1.0

File: 22130_LCOA_XRD_002_2-Theta_Omega.asc
*TYPE		=  Raw
*CLASS		=  ASCII CLASS
*SAMPLE		=
*COMMENT	=
*FNAME		=  22130_LCOA_XRD_002_2-Theta_Omega.asc
*DATE		=  30-Aug-22 00:09

*GROUP_COUNT	=  1
*GONIO		=  SmartLab(In-plane), 0.000000
*ATTACHMENT	=  Z-Phi Stage
*ASC		=  0, 0, 0.000000, 0.000000
*I_MONOCHRO	=  Ge(220)x2, 0.000000
*FILTER		=  None
*C_MONOCHRO	=  None, 0.000000
*SLIT_NAME	=  0, Incident slit
*SLIT_NAME	=  1, Receiving slit # 1
*SLIT_NAME	=  2, Receiving slit # 2
*COUNTER	=  D/teX Ultra 250, 0
*POS_FORMAT	=  0
*SCAN_AXIS	=  2Theta/Omega
*MEAS_MODE	=  Continuous Scanning
*TARGET		=  29
*XRAY_CHAR	=  K-ALPHA1
*WAVE_LENGTH1	=  1.54059
*WAVE_LENGTH2	=  1.54441
*THICKNESS	=  0, 0.000000
*MU		=  0, 0.000000
*SCAN_MODE	=  2Theta/Omega
*SPEED_DIM	=  sec./step
*XUNIT		=  deg.
*YUNIT		=  counts
*SCALE_MODE	=  1
*REP_COUNT	=  0
*SE_COUNT	=  0
*STD_MATERIAL	=  Unknown, Unknown, 0.000000, 0.000000, 0.000000, 0.000000, 0.000000, 0.000000
*LATT_CONS	=  0, Unknown, Unknown, 0.000000, 0.000000, 0.000000, 0.000000, 0.000000, 0.000000
*SEC_COUNT	=  1
*TSPEC_SIZE	=  0
*EXTRA_SIZE	=  0
*MEMO		=

*BEGIN
*GROUP		=  0
*START		=  42
*STOP		=  52
*STEP		=  0.01
*OFFSET		=  0.228
*SPEED		=  26.0451
*SLIT_SPEC	=  0, 0.400mm, 0.4, 0.000000
*SLIT_SPEC	=  1, 0.400mm, 0.4, 0.000000
*SLIT_SPEC	=  2, 0.400mm, 0.4, 0.000000
*KV		=  40
*MA		=  30
*LOW		=  0.000000
*HIGH		=  0.000000
*CTEMPER	=  0, 0.000000
*CTEMPER	=  1, 0.000000
*CTEMPER	=  2, 0.000000
*PAREX		=  0, 0.000000
*PAREX		=  1, 0.000000
*PAREX		=  2, 0.000000
*PAREX		=  3, 0.000000
*PAREX		=  4, 0.000000
*PAREX		=  5, 0.000000
*PAREX		=  6, 0.000000
*PAREX		=  7, 0.000000
*PAREX		=  8, 0.000000
*PAREX		=  9, 0.000000
*PAREX		=  10, 0.000000
*PAREX		=  11, 0.000000
*PAREX		=  12, 0.000000
*PAREX		=  13, 0.000000
*PAREX		=  14, 0.000000
*PAREX		=  15, 0.000000
*FULL_SCALE	=  350517
*INDEX		=  0, 0, 0
*COUNT		=  1001
20, 17, 25, 10
15, 19, 21.4944, 18.5056
20, 35.4944, 7.50555, 14.4944
12.5056, 32, 52.4944, 21
22.5056, 16.9889, 32.0111, 0.000000
21, 15.4944, 21.5056, 21
30, 19, 30, 26.4944
20.5056, 24, 10.4944, 27.5056
17, 26.4944, 26.5056, 12
20, 20, 20, 20
16.9778, 30.5167, 27.5056, 26.4944
20.5056, 17, 23, 23.4944
21, 21.5056, 24, 15
25, 26, 25, 37.4944
30.5056, 28.4833, 37.5167, 23
20, 21, 18, 28.4944
32, 10.5056, 24.4833, 35.5056
27.5056, 30.5056, 31, 23.4944
28.4944, 22.0111, 25, 22.4944
18.5056, 31, 48, 39
24, 32, 14.4944, 12.5056
16.4944, 18.5056, 17.4944, 7.50555
13, 29, 22, 37.9889
14.0111, 32, 19, 20
22, 13, 21, 18.4944
15, 19.5056, 20, 16.9889
27.5056, 24.5056, 21, 17
18.4944, 17, 25.5056, 6
28.4944, 27.5056, 20, 31
30, 28, 23.4944, 36
12.5056, 12, 33.4944, 44
22.5056, 32.9889, 31.5056, 31
41.9889, 29.5056, 40.0111, 19.4944
35.5056, 21, 22.4944, 32.5056
47.4944, 23.5056, 20, 23
17, 33, 32, 34.4944
27.5056, 36, 26, 19.4944
20.5056, 19, 27, 27.9889
32.5056, 20.4944, 22.0111, 27
23, 23.4944, 29.5056, 25.4944
32.5056, 23.4944, 27.5056, 25
43, 25.4944, 25.5056, 25
23, 22.4944, 40, 36.5056
26.4944, 28, 25.5056, 12
26, 29, 19.9889, 24.0111
29, 20, 21, 33.4944
26.5056, 30.4944, 31.5056, 25.4944
22.5056, 23.4944, 41.5056, 47.4944
26.5056, 34.4944, 28, 38
46.5056, 42, 24.4944, 40.5056
44.4944, 59.5056, 45.9889, 51
47.5056, 37.5056, 48.4944, 46.5056
32, 46, 40, 44
41.9889, 41.5056, 31.5056, 39.4944
26.4944, 47.0111, 35, 43.9889
27.0111, 25, 28, 36.4833
45.5056, 35.5056, 36, 20.5056
29.4944, 17.5056, 33.4944, 26.5056
20.9889, 29.0111, 27, 34.4944
36, 38, 34.5056, 16
34, 19.9889, 19, 30.5056
38.5056, 26.4944, 29.4944, 45
26.5056, 45.4944, 34.5056, 38
32, 28.5056, 45.4944, 32
45.5056, 64, 44, 38.9889
41.5056, 44.5056, 53.4944, 38
48.5056, 50.4944, 42, 76
43, 75, 61.5056, 68
55, 67.9889, 49.0111, 70
55, 44.4944, 79.5056, 61
57.9889, 61.5056, 54, 63.5056
47, 55, 44, 42
41, 49, 53, 46.4944
36, 34.5056, 27, 35.9889
32.5056, 37.4944, 33.9889, 38.5167
25.5056, 39, 34.4944, 34.5056
20.4944, 49, 36.4944, 42.0111
31.4944, 52.9889, 32.0111, 44.5056
37, 51, 37.4944, 56.5056
51, 69.4944, 68.5056, 63
80.4944, 74.5056, 59.4722, 82.5056
94.5167, 80.4944, 68.5056, 109.483
115.011, 114.989, 101.517, 110.978
113.022, 126.472, 102.517, 113
139.494, 112.011, 146.011, 136.472
165.022, 130.989, 128, 132.517
126.483, 137.989, 137.011, 157.494
136.506, 158, 166, 136
122.494, 107, 141.011, 134.989
117.022, 107.494, 98, 111.494
89, 102.011, 90.4833, 74.5167
80.9889, 91, 90, 101.506
69.5056, 89.9778, 93.0222, 78.4833
72, 100.494, 107.011, 109.506
134, 119.494, 135, 156.978
157.506, 170.494, 207.506, 211.011
239.461, 278.539, 308.472, 370.022
351.483, 422.011, 467.956, 512.483
494.033, 583, 583.989, 682.494
675.483, 749.528, 874.45, 782.539
927.944, 953.528, 1047.97, 1107.53
1123.97, 1201.49, 1376.45, 1393.02
1378.52, 1495.52, 1630.41, 1765.99
1763.57, 1908.97, 1872.47, 1996.53
2087.97, 2073.46, 2103.07, 2106.53
2236.45, 2388.97, 2393.08, 2446.49
2412.93, 2595.94, 2662.09, 2632.43
2742.51, 2724.9, 2666.07, 2793.52
2843.92, 2824.52, 2832.61, 2780.97
2926.48, 2977.98, 2968.07, 2943.48
2862.43, 2903.07, 2866.96, 2922.57
2828.45, 2844, 2818, 2765.08
2796.51, 2743.45, 2642.53, 2583.46
2585.51, 2476.99, 2473.55, 2434.46
2296.53, 2320.51, 2235.48, 2145.53
2039.47, 2045.52, 1966.55, 1955.48
1779.51, 1746.42, 1624.18, 1548.99
1525.42, 1423.08, 1388.51, 1302.01
1259.98, 1148.06, 1167.96, 1096.55
992, 933.978, 848.506, 853.483
793.517, 710.033, 643.483, 631.517
656.528, 493.483, 495, 396.033
402, 348.483, 288.989, 318.033
264.989, 242.517, 205, 197.506
143.506, 125.967, 158.517, 136.483
127.517, 119.517, 112.989, 122.494
135, 109.494, 144.517, 139
154.978, 140.517, 161.506, 134.494
167.989, 169, 156.989, 163.022
171.989, 221, 174.506, 200.011
191.483, 230.494, 236.517, 322.978
257.506, 246.517, 270.483, 231.494
256, 250.011, 283.494, 303
291.494, 308, 268, 267.978
252.044, 264.978, 220.517, 247.989
241.494, 256.528, 240.483, 234.011
242.483, 246.483, 218.033, 221.483
234.506, 217.506, 206.989, 179.517
201.494, 189, 203, 179.483
214, 175.517, 146.494, 171.506
159.483, 145.033, 147.989, 144.506
151, 152.494, 173.494, 161
150.483, 189.517, 151.989, 184.011
152, 185.506, 178.494, 176.483
219.517, 221.989, 225.483, 221.506
244.528, 239, 235.494, 218.494
232.978, 296.011, 297.494, 324.506
299.506, 310.978, 343.517, 369.494
358.011, 361.494, 412.494, 393.989
429, 454, 462.494, 454.483
484.506, 539.033, 509.967, 538.011
542.978, 561.022, 596.989, 652.978
617.033, 686, 711.517, 685.428
668.044, 712.989, 734.989, 794.528
804.967, 903.483, 943.428, 984.111
974.472, 1077.97, 1086.51, 1174.99
1243.48, 1421.49, 1494.04, 1625.43
1740.99, 1894.01, 2092.97, 2377.45
2527.57, 2953.81, 3458.99, 4006.86
4723.99, 5680.89, 6938.79, 8512.86
11428.1, 16567, 32068.5, 75394.6
161734, 258675, 397159, 664629
1276837.8, 2843726.5, 5751971.5, 7082459
4578938, 2090137.5, 1045023.8, 879895
772920, 695220, 663105, 428017
170935, 52173.1, 22633.4, 13330.5
9073.87, 6818.71, 5174.17, 4133.99
3474.12, 2831.08, 2473.44, 2090.09
1846.54, 1645, 1458.55, 1264.49
1105.02, 1040.02, 923.506, 872.494
809.517, 747.933, 649.089, 598.483
626.517, 506.044, 440, 456.461
478.978, 435.056, 407.472, 371.033
343.494, 327.967, 306.517, 298.022
307.494, 271.517, 225.461, 248.528
253.483, 207.494, 218.506, 192
157.011, 221.506, 142.989, 172.506
143.011, 143, 130.494, 129.011
108.978, 108.011, 87.4944, 137.011
91.9889, 120.517, 89.9889, 71.0111
83.5056, 100.483, 90.5056, 74
69.4944, 86.4944, 66, 95.0111
51, 55.0111, 60.9889, 60.0111
75.4833, 59.0111, 57.5056, 44.9889
48.5056, 49.4944, 46.5056, 58.5056
48, 30.4944, 44.5056, 36.4944
39, 47, 42.5056, 43.4944
42, 54.5056, 46.9889, 26.0111
56, 38, 24, 71.9889
38.5056, 32, 45.5056, 28.4944
57, 36.4944, 46.5056, 46.5056
27.4944, 46, 34.4944, 38.0111
36, 30.4944, 52, 41
59.5056, 42.4944, 28.5056, 23.4944
34.9889, 48.0111, 45, 35
40.4944, 33.0111, 30.4833, 35.5167
38.4944, 27.5056, 39, 44.4944
27.9889, 27.5167, 31.9889, 36.0111
41.4944, 28.5056, 32.4944, 19.9889
30.5167, 35, 36, 36
21.4944, 35, 22.5056, 23
23, 24, 28.9889, 35.0111
30, 28.9889, 25.0111, 22
24, 23, 32.9889, 21.0111
21, 19.4944, 22.5056, 29.4944
19.5056, 25, 36.4944, 22.5056
24.4944, 26.5056, 24.4944, 42.5056
29.4833, 31.0111, 26.5056, 22
33.4944, 19.4944, 22.5056, 23.5056
31, 24.4944, 23.5056, 17.9889
22.0111, 27, 20, 27
24, 41.4944, 20.5056, 29.4944
30.5056, 24, 26.4944, 14
12.5056, 26, 19, 31.9889
33.5056, 18.5056, 21, 31
22, 22.4944, 28, 14.4944
17.0111, 24, 27.4944, 24
20.5056, 15, 18, 16.4944
31.5056, 23, 13, 18
24, 19, 12, 8
17, 17.4944, 18.5056, 19
23, 20, 17, 23
22, 16.9889, 19.0111, 23
24.9889, 22.5056, 31.4944, 31.5056
17, 18.5056, 16, 15
32, 20, 28, 18.9889
24.0111, 24.4944, 23.5056, 23.9889
20.0111, 24, 20, 25
11, 18, 7.49445, 18
18.5056, 5, 32, 21
22, 22.4944, 21.4833, 21.0222
17, 26, 5.49445, 39.5056
21, 12, 33.9889, 21.0111
31.4944, 30.5056, 18, 8.49445
11.5056, 17.4944, 28.5056, 24.4944
23.4944, 28.5056, 12.4944, 9.01111
23.4944, 15, 18.5056, 30
21, 18, 9, 25
23.9889, 26.0111, 20.4944, 24
20, 36, 16.5056, 26
14.4944, 10.5056, 31, 14
16, 6, 18, 20.4944
18.5056, 23.4944, 24.5056, 20
19, 26.4944, 21.5056, 15
22.9889, 38.5056, 15.5056, 24
16.9889, 18.0111, 24.4944, 22
11.5056, 9, 16, 15
17.9889, 18.0111, 7, 16.9889
18.0111, 19, 13, 21
17, 13, 9.49445, 24.5056
20
*END

*EOF

File: 22130_LCOA_XRR_2-Theta_Omega.asc
*TYPE		=  Raw
*CLASS		=  ASCII CLASS
*SAMPLE		=
*COMMENT	=
*FNAME		=  22130_LCOA_XRR_2-Theta_Omega.asc
*DATE		=  29-Aug-22 15:20

*GROUP_COUNT	=  1
*GONIO		=  SmartLab(In-plane), 0.000000
*ATTACHMENT	=  Z-Phi Stage
*ASC		=  0, 0, 0.000000, 0.000000
*I_MONOCHRO	=  Ge(220)x2, 0.000000
*FILTER		=  None
*C_MONOCHRO	=  None, 0.000000
*SLIT_NAME	=  0, Incident slit
*SLIT_NAME	=  1, Receiving slit # 1
*SLIT_NAME	=  2, Receiving slit # 2
*COUNTER	=  D/teX Ultra 250, 0
*POS_FORMAT	=  0
*SCAN_AXIS	=  2Theta/Omega
*MEAS_MODE	=  Continuous Scanning
*TARGET		=  29
*XRAY_CHAR	=  K-ALPHA1
*WAVE_LENGTH1	=  1.54059
*WAVE_LENGTH2	=  1.54441
*THICKNESS	=  0, 0.000000
*MU		=  0, 0.000000
*SCAN_MODE	=  2Theta/Omega
*SPEED_DIM	=  sec./step
*XUNIT		=  deg.
*YUNIT		=  counts
*SCALE_MODE	=  1
*REP_COUNT	=  0
*SE_COUNT	=  0
*STD_MATERIAL	=  Unknown, Unknown, 0.000000, 0.000000, 0.000000, 0.000000, 0.000000, 0.000000
*LATT_CONS	=  0, Unknown, Unknown, 0.000000, 0.000000, 0.000000, 0.000000, 0.000000, 0.000000
*SEC_COUNT	=  1
*TSPEC_SIZE	=  0
*EXTRA_SIZE	=  0
*MEMO		=

*BEGIN
*GROUP		=  0
*START		=  0.4
*STOP		=  4.5
*STEP		=  0.01
*OFFSET		=  0.0069
*SPEED		=  20.6484
*SLIT_SPEC	=  0, 1.000mm, 1, 0.000000
*SLIT_SPEC	=  1, 1.000mm, 1, 0.000000
*SLIT_SPEC	=  2, 1.000mm, 1, 0.000000
*KV		=  40
*MA		=  30
*LOW		=  0.000000
*HIGH		=  0.000000
*CTEMPER	=  0, 0.000000
*CTEMPER	=  1, 0.000000
*CTEMPER	=  2, 0.000000
*PAREX		=  0, 0.000000
*PAREX		=  1, 0.000000
*PAREX		=  2, 0.000000
*PAREX		=  3, 0.000000
*PAREX		=  4, 0.000000
*PAREX		=  5, 0.000000
*PAREX		=  6, 0.000000
*PAREX		=  7, 0.000000
*PAREX		=  8, 0.000000
*PAREX		=  9, 0.000000
*PAREX		=  10, 0.000000
*PAREX		=  11, 0.000000
*PAREX		=  12, 0.000000
*PAREX		=  13, 0.000000
*PAREX		=  14, 0.000000
*PAREX		=  15, 0.000000
*FULL_SCALE	=  70425
*INDEX		=  0, 0, 0
*COUNT		=  411
964686, 988938, 1012871, 1033219
1054175.5, 1072000, 1091601, 1107797.5
1122570, 1136356, 1148762.5, 1161157
1168201.5, 1176764.5, 1182601.5, 1187716
1187708.5, 1186157.5, 1180461, 1171817.5
1160535.5, 1142665, 1122281.5, 1094329.5
1064568.5, 1028718.1, 988586, 946071
899687, 849839, 800380, 748249
697938, 646617, 598196, 550156
506538, 462451, 422220, 384520
349985, 317917, 289988, 264466
241289, 222450, 203660, 187829
173173, 161313, 150078, 140161
129829, 121780, 114587, 107164
101026, 95451, 90443, 85049
79888, 76176.5, 72303, 68671
64838.5, 62243, 58997.5, 56601.5
53791.5, 51553, 49432, 46648
45118, 43319, 41382, 39910.5
38381.5, 36651, 35527.5, 34321
32941.5, 31829, 30782.5, 29803.5
28427, 27896.5, 26699, 25728.5
24680.5, 23950.5, 23167.5, 22442
21653.5, 20865, 20218, 19548
18428, 18099, 17313.5, 17078.5
16527, 15912.5, 15651.5, 14889
14275, 13928.5, 13273.5, 12859.5
12372, 12059, 11503, 11164.5
10865, 10654.5, 10435, 10079.5
9676.5, 9354, 9156, 8930
8695, 8636, 8158, 8076
7925, 7814.5, 7423.5, 7305
7191.5, 7091, 6833.5, 6578
6696, 6333.5, 6207.5, 6052.5
5998, 5835.5, 5575, 5525.5
5413.5, 5296.5, 5200, 5016.5
4987, 4814, 4763.5, 4557
4516, 4388.5, 4311, 4150
4087.5, 4010.5, 3729.5, 3683
3595, 3595.5, 3377.5, 3336
3217, 3170.5, 3118, 3015
2946.5, 2872, 2863, 2693
2681.5, 2661, 2576.5, 2488
2533.5, 2390.5, 2393, 2334
2353.5, 2276.5, 2190, 2199.5
2082, 2047.5, 2051.5, 2038.5
2115, 1990, 1913, 1887.5
1929, 1831, 1763.5, 1874
1757, 1746.5, 1692.5, 1634.5
1627.5, 1621, 1639, 1639.5
1541, 1522.5, 1463.5, 1392
1411.5, 1405, 1407.5, 1387.5
1339.5, 1193, 1238.5, 1208
1222.5, 1216, 1174.5, 1211
1171.5, 1144.5, 1128.5, 1111
1131.5, 1085.5, 1016, 958
942, 980.001, 924, 922
927, 895, 871.5, 890
869.5, 915.5, 878, 839
851, 775, 842, 841.5
772, 829.5, 817, 760.5
759, 775, 784, 751.5
722, 719.5, 696, 756.001
690.5, 703.5, 611, 669.5
733.5, 651.501, 656.999, 690.5
709.5, 645, 659.5, 674.5
621.5, 621.5, 612, 570
629.5, 624, 544, 520.5
555.5, 574, 574, 497
535, 514.5, 509.999, 564.5
494, 484.5, 477.5, 450
543, 477, 481, 513.5
457.001, 398.5, 482, 456
475, 458.5, 425.5, 438.5
490, 464.5, 483.5, 432.5
426.5, 416.5, 464, 423
404.5, 424, 480, 379
428, 431.5, 433.5, 457.5
462.5, 461, 432, 352.5
418.5, 398, 391.5, 352
382.5, 445, 401.5, 415
348, 380.5, 372.5, 392
378.5, 354, 407.5, 355.5
403.499, 331.5, 347, 349.5
372.5, 344.5, 359.5, 319
359.5, 362.999, 352, 315
331.5, 362.5, 330.5, 324.5
357, 333, 345.5, 340.5
328.5, 339.5, 343.5, 353.5
335.5, 345, 340.5, 319.5
301, 349.5, 337, 336
356.5, 364, 323, 324.999
320, 332, 318.5, 351.5
331.5, 351, 332, 333.501
316, 342.5, 352.5, 304.5
323, 296.5, 310, 324
309, 312, 329, 304.5
272, 297.5, 304.5, 331
323.5, 310.5, 356, 343.5
299.5, 325, 285.5, 291.5
334, 300, 301, 287
338.5, 301.5, 318, 330
331.5, 321, 296
*END

*EOF