Folder: Analysis/XRD:XRR/LCO/22136_LCOT

File: 22136_LCOT_XRD_002.csv
#twotheta, yobs, ycal, bkg, diff
42.0,9.0,1.0,1.0,1.0
42.04,5.0,1.0,1.0,1.0
42.08,4.0,1.0,1.0,1.0
42.12,9.0,1.0,1.0,1.0
42.16,9.0,1.0,1.0,1.0
42.2,9.0,1.0,1.0,1.0
42.24,19.4944,1.0,1.0,1.0
42.28,9.0,1.0,1.0,1.0
42.32,6.0,1.0,1.0,1.0
42.36,5.0,1.0,1.0,1.0
42.4,15.0,1.0,1.0,1.0
42.44,13.5056,1.0,1.0,1.0
42.48,14.0,1.0,1.0,1.0
42.52,10.0,1.0,1.0,1.0
42.56,13.4944,1.0,1.0,1.0
42.6,2.0,1.0,1.0,1.0
42.64,9.0,1.0,1.0,1.0
42.68,12.0,1.0,1.0,1.0
42.72,10.0,1.0,1.0,1.0
42.76,6.9889,1.0,1.0,1.0
42.8,16.0,1.0,1.0,1.0
42.84,8.0,1.0,1.0,1.0
42.88,6.0,1.0,1.0,1.0
42.92,9.4944,1.0,1.0,1.0
42.96,8.4944,1.0,1.0,1.0
43.0,23.0,1.0,1.0,1.0
43.04,10.0,1.0,1.0,1.0
43.08,7.0,1.0,1.0,1.0
43.12,17.0,1.0,1.0,1.0
43.16,16.0,1.0,1.0,1.0
43.2,16.4944,1.0,1.0,1.0
43.24,19.0,1.0,1.0,1.0
43.28,9.9889,1.0,1.0,1.0
43.32,9.0,1.0,1.0,1.0
43.36,6.0,1.0,1.0,1.0
43.4,21.0,1.0,1.0,1.0
43.44,11.5056,1.0,1.0,1.0
43.48,9.0,1.0,1.0,1.0
43.52,14.0,1.0,1.0,1.0
43.56,22.0,1.0,1.0,1.0
43.6,12.4944,1.0,1.0,1.0
43.64,17.0,1.0,1.0,1.0
43.68,14.5056,1.0,1.0,1.0
43.72,11.0,1.0,1.0,1.0
43.76,31.0,1.0,1.0,1.0
43.8,14.4944,1.0,1.0,1.0
43.84,11.5056,1.0,1.0,1.0
43.88,9.4944,1.0,1.0,1.0
43.92,12.5056,1.0,1.0,1.0
43.96,17.0,1.0,1.0,1.0
44.0,14.0,1.0,1.0,1.0
44.04,11.0,1.0,1.0,1.0
44.08,17.4944,1.0,1.0,1.0
44.12,29.0111,1.0,1.0,1.0
44.16,18.4944,1.0,1.0,1.0
44.2,12.0,1.0,1.0,1.0
44.24,18.0,1.0,1.0,1.0
44.28,17.0,1.0,1.0,1.0
44.32,9.0,1.0,1.0,1.0
44.36,36.0,1.0,1.0,1.0
44.4,23.0111,1.0,1.0,1.0
44.44,22.5056,1.0,1.0,1.0
44.48,18.0,1.0,1.0,1.0
44.52,18.5056,1.0,1.0,1.0
44.56,34.5056,1.0,1.0,1.0
44.6,30.0,1.0,1.0,1.0
44.64,28.0,1.0,1.0,1.0
44.68,15.0111,1.0,1.0,1.0
44.72,21.0,1.0,1.0,1.0
44.76,36.5056,1.0,1.0,1.0
44.8,30.5056,1.0,1.0,1.0
44.84,20.0,1.0,1.0,1.0
44.88,51.5056,1.0,1.0,1.0
44.92,23.0111,1.0,1.0,1.0
44.96,38.0,1.0,1.0,1.0
45.0,37.5056,1.0,1.0,1.0
45.04,41.4944,1.0,1.0,1.0
45.08,45.5056,1.0,1.0,1.0
45.12,44.5056,1.0,1.0,1.0
45.16,49.9889,1.0,1.0,1.0
45.2,55.0,1.0,1.0,1.0
45.24,51.0,1.0,1.0,1.0
45.28,55.5056,1.0,1.0,1.0
45.32,59.4944,1.0,1.0,1.0
45.36,78.0,1.0,1.0,1.0
45.4,73.5167,1.0,1.0,1.0
45.44,63.0111,1.0,1.0,1.0
45.48,85.0222,1.0,1.0,1.0
45.52,59.5056,1.0,1.0,1.0
45.56,97.5167,1.0,1.0,1.0
45.6,146.0,1.0,1.0,1.0
45.64,106.5056,1.0,1.0,1.0
45.68,148.5278,1.0,1.0,1.0
45.72,199.0111,1.0,1.0,1.0
45.76,184.5056,1.0,1.0,1.0
45.8,225.0111,1.0,1.0,1.0
45.84,268.4833,1.0,1.0,1.0
45.88,226.4722,1.0,1.0,1.0
45.92,259.9889,1.0,1.0,1.0
45.96,440.0222,1.0,1.0,1.0
46.0,290.9778,1.0,1.0,1.0
46.04,442.4722,1.0,1.0,1.0
46.08,645.9778,1.0,1.0,1.0
46.12,628.0,1.0,1.0,1.0
46.16,834.9667,1.0,1.0,1.0
46.2,1210.93,1.0,1.0,1.0
46.24,1295.99,1.0,1.0,1.0
46.28,1849.93,1.0,1.0,1.0
46.32,3369.98,1.0,1.0,1.0
46.36,6075.1,1.0,1.0,1.0
46.4,30416.8,1.0,1.0,1.0
46.44,709998.625,1.0,1.0,1.0
46.48,2429439.0,1.0,1.0,1.0
46.52,26639316.0,1.0,1.0,1.0
46.56,378780.25,1.0,1.0,1.0
46.6,203167,1.0,1.0,1.0
46.64,211282,1.0,1.0,1.0
46.68,183923,1.0,1.0,1.0
46.72,111544,1.0,1.0,1.0
46.76,45749.7,1.0,1.0,1.0
46.8,15552.8,1.0,1.0,1.0
46.84,8269.583,1.0,1.0,1.0
46.88,5131.65,1.0,1.0,1.0
46.92,3181.58,1.0,1.0,1.0
46.96,2613.46,1.0,1.0,1.0
47.0,2067.07,1.0,1.0,1.0
47.04,1473.54,1.0,1.0,1.0
47.08,1255.99,1.0,1.0,1.0
47.12,1043.55,1.0,1.0,1.0
47.16,896.9778,1.0,1.0,1.0
47.2,746.4611,1.0,1.0,1.0
47.24,699.0333,1.0,1.0,1.0
47.28,539.9333,1.0,1.0,1.0
47.32,512.0222,1.0,1.0,1.0
47.36,460.0222,1.0,1.0,1.0
47.4,404.0111,1.0,1.0,1.0
47.44,390.9778,1.0,1.0,1.0
47.48,378.0222,1.0,1.0,1.0
47.52,325.5056,1.0,1.0,1.0
47.56,261.4611,1.0,1.0,1.0
47.6,244.5056,1.0,1.0,1.0
47.64,220.0222,1.0,1.0,1.0
47.68,231.0,1.0,1.0,1.0
47.72,183.0111,1.0,1.0,1.0
47.76,147.0111,1.0,1.0,1.0
47.8,141.0,1.0,1.0,1.0
47.84,122.5167,1.0,1.0,1.0
47.88,119.5167,1.0,1.0,1.0
47.92,93.4833,1.0,1.0,1.0
47.96,90.4944,1.0,1.0,1.0
48.0,78.0111,1.0,1.0,1.0
48.04,77.4944,1.0,1.0,1.0
48.08,65.0,1.0,1.0,1.0
48.12,58.9889,1.0,1.0,1.0
48.16,67.0,1.0,1.0,1.0
48.2,52.5056,1.0,1.0,1.0
48.24,47.4944,1.0,1.0,1.0
48.28,34.9889,1.0,1.0,1.0
48.32,43.0111,1.0,1.0,1.0
48.36,41.0,1.0,1.0,1.0
48.4,36.0,1.0,1.0,1.0
48.44,36.0222,1.0,1.0,1.0
48.48,29.0,1.0,1.0,1.0
48.52,19.0,1.0,1.0,1.0
48.56,31.9889,1.0,1.0,1.0
48.6,30.9889,1.0,1.0,1.0
48.64,18.0,1.0,1.0,1.0
48.68,22.5056,1.0,1.0,1.0
48.72,23.0,1.0,1.0,1.0
48.76,25.0,1.0,1.0,1.0
48.8,24.9889,1.0,1.0,1.0
48.84,26.5056,1.0,1.0,1.0
48.88,16.0,1.0,1.0,1.0
48.92,13.4944,1.0,1.0,1.0
48.96,12.0,1.0,1.0,1.0
49.0,20.9889,1.0,1.0,1.0
49.04,22.0,1.0,1.0,1.0
49.08,12.0,1.0,1.0,1.0
49.12,16.0,1.0,1.0,1.0
49.16,6.4944,1.0,1.0,1.0
49.2,15.4944,1.0,1.0,1.0
49.24,10.0,1.0,1.0,1.0
49.28,18.0111,1.0,1.0,1.0
49.32,9.0,1.0,1.0,1.0
49.36,9.0,1.0,1.0,1.0
49.4,15.0,1.0,1.0,1.0
49.44,17.5056,1.0,1.0,1.0
49.48,19.0,1.0,1.0,1.0
49.52,14.0,1.0,1.0,1.0
49.56,13.5056,1.0,1.0,1.0
49.6,8.0,1.0,1.0,1.0
49.64,10.0,1.0,1.0,1.0
49.68,9.0,1.0,1.0,1.0
49.72,4.0,1.0,1.0,1.0
49.76,14.0,1.0,1.0,1.0
49.8,14.0,1.0,1.0,1.0
49.84,12.0,1.0,1.0,1.0
49.88,12.0,1.0,1.0,1.0
49.92,14.5056,1.0,1.0,1.0
49.96,6.4944,1.0,1.0,1.0
50.0,6.0,1.0,1.0,1.0
50.04,8.0,1.0,1.0,1.0
50.08,2.5056,1.0,1.0,1.0
50.12,16.5056,1.0,1.0,1.0
50.16,16.4944,1.0,1.0,1.0
50.2,3.0,1.0,1.0,1.0
50.24,14.0,1.0,1.0,1.0
50.28,15.0,1.0,1.0,1.0
50.32,13.0,1.0,1.0,1.0
50.36,10.0,1.0,1.0,1.0
50.4,9.0,1.0,1.0,1.0
50.44,4.0111,1.0,1.0,1.0
50.48,18.0111,1.0,1.0,1.0
50.52,10.0,1.0,1.0,1.0
50.56,6.4944,1.0,1.0,1.0
50.6,4.0,1.0,1.0,1.0
50.64,11.0,1.0,1.0,1.0
50.68,5.0,1.0,1.0,1.0
50.72,5.0,1.0,1.0,1.0
50.76,3.0,1.0,1.0,1.0
50.8,2.0,1.0,1.0,1.0
50.84,11.0,1.0,1.0,1.0
50.88,3.5056,1.0,1.0,1.0
50.92,7.0,1.0,1.0,1.0
50.96,12.0,1.0,1.0,1.0
51.0,6.0,1.0,1.0,1.0
51.04,5.0,1.0,1.0,1.0
51.08,6.0,1.0,1.0,1.0
51.12,8.0,1.0,1.0,1.0
51.16,7.5056,1.0,1.0,1.0
51.2,3.0,1.0,1.0,1.0
51.24,2.0,1.0,1.0,1.0
51.28,5.0,1.0,1.0,1.0
51.32,6.0,1.0,1.0,1.0
51.36,4.4944,1.0,1.0,1.0
51.4,7.0,1.0,1.0,1.0
51.44,12.0,1.0,1.0,1.0
51.48,10.0,1.0,1.0,1.0
51.52,14.0111,1.0,1.0,1.0
51.56,0.5056,1.0,1.0,1.0
51.6,4.9889,1.0,1.0,1.0
51.64,4.5056,1.0,1.0,1.0
51.68,9.0,1.0,1.0,1.0
51.72,10.5056,1.0,1.0,1.0
51.76,6.0,1.0,1.0,1.0
51.8,3.0,1.0,1.0,1.0
51.84,8.0,1.0,1.0,1.0
51.88,8.0,1.0,1.0,1.0
51.92,9.5056,1.0,1.0,1.0
51.96,0.0,1.0,1.0,1.0
52.0,7.0,1.0,1.0,1.0

File: 22136_LCOT_XRD_002_2-Theta_Omega.asc
*TYPE		=  Raw
*CLASS		=  ASCII CLASS
*SAMPLE		=
*COMMENT	=
*FNAME		=  22136_LCOT_XRD_002_2-Theta_Omega.asc
*DATE		=  09-Sep-22 01:05

*GROUP_COUNT	=  1
*GONIO		=  SmartLab(In-plane), 0.000000
*ATTACHMENT	=  Z-Phi Stage
*ASC		=  0, 0, 0.000000, 0.000000
*I_MONOCHRO	=  Ge(220)x2, 0.000000
*FILTER		=  None
*C_MONOCHRO	=  None, 0.000000
*SLIT_NAME	=  0, Incident slit
*SLIT_NAME	=  1, Receiving slit # 1
*SLIT_NAME	=  2, Receiving slit # 2
*COUNTER	=  D/teX Ultra 250, 0
*POS_FORMAT	=  0
*SCAN_AXIS	=  2Theta/Omega
*MEAS_MODE	=  Continuous Scanning
*TARGET		=  29
*XRAY_CHAR	=  K-ALPHA1
*WAVE_LENGTH1	=  1.54059
*WAVE_LENGTH2	=  1.54441
*THICKNESS	=  0, 0.000000
*MU		=  0, 0.000000
*SCAN_MODE	=  2Theta/Omega
*SPEED_DIM	=  sec./step
*XUNIT		=  deg.
*YUNIT		=  counts
*SCALE_MODE	=  1
*REP_COUNT	=  0
*SE_COUNT	=  0
*STD_MATERIAL	=  Unknown, Unknown, 0.000000, 0.000000, 0.000000, 0.000000, 0.000000, 0.000000
*LATT_CONS	=  0, Unknown, Unknown, 0.000000, 0.000000, 0.000000, 0.000000, 0.000000, 0.000000
*SEC_COUNT	=  1
*TSPEC_SIZE	=  0
*EXTRA_SIZE	=  0
*MEMO		=

*BEGIN
*GROUP		=  0
*START		=  42
*STOP		=  52
*STEP		=  0.01
*OFFSET		=  -0.095600
*SPEED		=  23.9588
*SLIT_SPEC	=  0, 0.400mm, 0.4, 0.000000
*SLIT_SPEC	=  1, 0.400mm, 0.4, 0.000000
*SLIT_SPEC	=  2, 0.400mm, 0.4, 0.000000
*KV		=  40
*MA		=  30
*LOW		=  0.000000
*HIGH		=  0.000000
*CTEMPER	=  0, 0.000000
*CTEMPER	=  1, 0.000000
*CTEMPER	=  2, 0.000000
*PAREX		=  0, 0.000000
*PAREX		=  1, 0.000000
*PAREX		=  2, 0.000000
*PAREX		=  3, 0.000000
*PAREX		=  4, 0.000000
*PAREX		=  5, 0.000000
*PAREX		=  6, 0.000000
*PAREX		=  7, 0.000000
*PAREX		=  8, 0.000000
*PAREX		=  9, 0.000000
*PAREX		=  10, 0.000000
*PAREX		=  11, 0.000000
*PAREX		=  12, 0.000000
*PAREX		=  13, 0.000000
*PAREX		=  14, 0.000000
*PAREX		=  15, 0.000000
*FULL_SCALE	=  1845468.8
*INDEX		=  0, 0, 0
*COUNT		=  1001
9, 16, 12, 17
5, 5, 0.000000, 12
4, 1, 9, 5
9, 5, 12, 16
9, 18, 14, 18
9, 17, 5, 10
19.4944, 3.50555, 7, 9
9, 3.49445, 17.5056, 2
6, 5.49445, 14.5056, 11
5, 3, 12, 7
15, 10.4944, 21, 15
13.5056, 34, 4, 9
14, 4, 12.4944, 24.5056
10, 6, 13, 9
13.4944, 10.5056, 28, 6
2, 10, 8, 5
9, 2, 21, 2
12, 14, 7.49445, 2.50555
10, 11, 8, 10
6.98889, 9.01111, 10, 9
16, 10, 14.4944, 14.5056
8, 12, 16.4944, 4.50555
6, 11, 12.4944, 5.50555
9.49445, 8.50555, 6, 4
8.49445, 7.50555, 0.000000, 4
23, 14, 12, 7
10, 8, 8, 9
7, 7, 10.9889, 13.0111
17, 6, 6.49445, 8.50555
16, 6, 4, 19
16.4944, 6.50555, 17, 6
19, 9, 18, 11
9.98889, 9.01111, 17.4944, 24.5056
9, 9, 15, 8
6, 5, 7.49445, 13.5056
21, 8, 20, 11.4944
11.5056, 12, 22, 16
9, 15, 20.4944, 11.5056
14, 8.49445, 17.5056, 8
22, 12, 11, 7
12.4944, 7.50555, 21.9889, 20.0111
17, 10, 11, 23.4944
14.5056, 9, 12, 6
11, 5, 10, 22
31, 19, 16, 13
14.4944, 4.50555, 8, 18.4944
11.5056, 12, 13, 7
9.49445, 15.5056, 12, 10.4944
12.5056, 9, 20, 14
17, 5, 16, 25
14, 15, 8, 19
11, 12.4944, 8.50555, 16
17.4944, 18.5056, 13.4944, 19.4944
29.0111, 15, 23.4944, 14.5056
18.4944, 27.5056, 5, 12
12, 19, 26, 7
18, 24, 32.9889, 19.0111
17, 33.4944, 18.5056, 13
9, 12, 22, 24
36, 27, 23, 42.9889
23.0111, 25.9889, 20.0111, 23.4944
22.5056, 21, 22.4944, 24.5056
18, 20, 27, 26.4944
18.5056, 40.4833, 20.5056, 24
34.5056, 13.5056, 15.4944, 22.5056
30, 19, 30.4944, 34.5056
28, 26.4944, 27.5056, 35.9889
15.0111, 16, 22, 27
21, 38, 24, 21.4944
36.5056, 23.4944, 18, 29
30.5056, 15.9889, 20.0111, 25
20, 24, 38, 35.4944
51.5056, 33, 27.4944, 45.4944
23.0111, 27.4944, 18.5056, 43
38, 43, 36.4944, 41
37.5056, 23.4944, 34.5056, 23
41.4944, 26.4944, 28.0111, 39.4944
45.5056, 47, 45.4944, 48
44.5056, 48, 41, 48
49.9889, 50.5056, 43.5056, 28.4944
55, 59.4944, 59.5056, 54.5056
51, 61.9889, 35.5056, 34
55.5056, 30, 65.4944, 62.4944
59.4944, 68.0111, 66.4944, 73
78, 64.4944, 68.5056, 51.9889
73.5167, 64.4833, 57.0222, 64.9889
63.0111, 77.9778, 91.0111, 99.4722
85.0222, 82.5167, 71, 77.4944
59.5056, 90.4833, 87.0111, 115.978
97.5167, 129.483, 129.022, 127.483
146, 128.506, 144.506, 112.989
106.506, 118.506, 153.472, 129
148.528, 150, 183.978, 223.506
199.011, 149.989, 164.011, 143.989
184.506, 157.989, 182, 197
225.011, 258.978, 243.033, 277.483
268.483, 238.033, 242.494, 227.506
226.472, 235.528, 248.989, 246.978
259.989, 354, 360.472, 442.528
440.022, 386.989, 353.506, 368.528
290.978, 375.978, 378.978, 392.539
442.472, 573.022, 556.461, 657.022
645.978, 678.989, 620.528, 640.989
628, 620.011, 593.494, 711
834.967, 865.517, 976.45, 1103.02
1210.93, 1321.54, 1262.97, 1308.02
1295.99, 1349.47, 1496.07, 1668.42
1849.93, 2242.02, 2543.48, 2919.44
3369.98, 3983.9, 4531.87, 5189.86
6075.1, 7607.28, 10283.6, 15975.4
30416.8, 92810.2, 333140, 561585
709999, 868115, 1185305.5, 1612976.9
2429439, 4976416, 16400034, 33111108
26639316, 5207314.5, 1055949.5, 563107
378780, 285939, 235255, 210111
203167, 203650, 207207, 209643
211282, 209470, 204826, 195270
183923, 166964, 149524, 131039
111544, 92171.3, 74161.3, 59171.1
45749.7, 34989, 26487, 20341.1
15552.8, 12550.7, 10657.3, 9428.65
8269.58, 7307.1, 6733.51, 5903.55
5131.65, 4550.13, 3888.56, 3383.46
3181.58, 2850.02, 2697.46, 2578.58
2613.46, 2334.03, 2392.51, 2230.48
2067.07, 1800.92, 1701.09, 1508.98
1473.54, 1296.49, 1275.56, 1237.96
1255.99, 1239.52, 1191.48, 1213.01
1043.55, 1055.98, 1024.97, 922.067
896.978, 824.539, 815.483, 743.539
746.461, 785.494, 730.033, 739.494
699.033, 606.45, 675, 650.561
539.933, 577.528, 531.528, 530.989
512.022, 458.967, 531.033, 497.956
460.022, 450.011, 406.989, 444.506
404.011, 399.517, 375.989, 356
390.978, 366.528, 347.506, 327.978
378.022, 363.989, 332, 329.483
325.506, 293.528, 282.494, 331.506
261.461, 280.517, 269.528, 266.483
244.506, 253, 260.506, 228.978
220.022, 209.989, 185, 198.989
231, 167.011, 159.517, 186.494
183.011, 165.472, 199, 186.011
147.011, 184, 148.494, 142.494
141, 151.011, 136.989, 136
122.517, 136.494, 112, 116.494
119.517, 132.483, 114.517, 94
93.4833, 88.0111, 89.5056, 96.4833
90.4944, 95.5167, 88.9889, 87.5056
78.0111, 79, 72.9889, 75.5056
77.4944, 75.0111, 60.9889, 70
65, 56.5056, 50, 49.5056
58.9889, 65.5056, 51, 37.4944
67, 50.5056, 50.5056, 49.4944
52.5056, 38, 51.4944, 32.5056
47.4944, 45.4944, 35.5056, 46.5056
34.9889, 42, 30.0111, 49.4833
43.0111, 39.5056, 25, 29
41, 28.4944, 24, 52.5056
36, 25, 35.9889, 30.9889
36.0222, 26, 46, 27
29, 22.9889, 32.0111, 17
19, 20, 22, 26
31.9889, 30, 27.0111, 36
30.9889, 21.5056, 22.5056, 25
18, 27, 18, 25.4944
22.5056, 19, 27.4944, 21.5056
23, 23, 24.9889, 20.0111
25, 31, 28, 20
24.9889, 33.0111, 22.4944, 26
26.5056, 129.494, 26, 23.5056
16, 19, 20, 17
13.4944, 10.5056, 21, 11
12, 14, 23, 19
20.9889, 11.0111, 24.4944, 9.50555
22, 22.4944, 28.5056, 14.4944
12, 22.5056, 22, 9
16, 14, 20.4944, 15.5056
6.49445, 11.5056, 14, 8
15.4944, 14.5056, 4, 10
10, 10, 12, 12.9889
18.0111, 16, 16, 8
9, 10, 15.4944, 12.5056
9, 6, 20, 6
15, 11, 11, 9.49445
17.5056, 13, 10.4944, 9.50555
19, 7, 10, 10
14, 7.49445, 11, 3
13.5056, 13, 18, 5
8, 6, 6, 22
10, 6, 10.4944, 13.5056
9, 13, 7.49445, 8.50555
4, 15, 7.98889, 6.01111
14, 16, 2, 4
14, 32, 20, 8
12, 7, 9.49445, 6.50555
12, 0.000000, 6.49445, 2
14.5056, 8, 16, 9
6.49445, 9.50555, 11, 16
6, 3, 9, 20
8, 15, 16, 13.4944
2.50555, 7.49445, 8.50555, 7.49445
16.5056, 8, 11, 10
16.4944, 5.50555, 11, 3
3, 7, 10, 11
14, 8, 7, 17
15, 10, 17, 14.4944
13, 18.5056, 7, 6
10, 4, 4, 6
9, 11, 4, 8.98889
4.01111, 10, 11, 5.98889
18.0111, 11, 4, 14
10, 10, 8, 6
6.49445, 9.50555, 17, 8
4, 12, 10, 5
11, 16, 5.49445, 15.5056
5, 8, 6, 9
5, 6, 11, 7
3, 16, 16, 7
2, 8, 14, 10
11, 3, 8, 0.494446
3.50555, 14, 0.000000, 9
7, 7, 6, 9
12, 5, 11, 2
6, 4, 0.000000, 2
5, 10, 5, 12
6, 2, 8, 8
8, 5, 2, 7.49445
7.50555, 5.49445, 6.50555, 0.000000
3, 7, 5.49445, 9.50555
2, 4, 5, 13
5, 7, 5.49445, 9.50555
6, 14, 5, 8
4.49445, 5.50555, 4.49445, 11.5056
7, 9, 3, 0.494446
12, 5.50555, 9, 13
10, 16, 2, 8.98889
14.0111, 11, 9, 11.4944
0.505554, 11.4944, 2.50555, 6
4.98889, 9.01111, 2, 8.49445
4.50555, 7, 10, 12
9, 8, 7, 6.49445
10.5056, 16, 6, 9
6, 4, 11.4944, 1.50555
3, 4, 9, 2
8, 2, 2, 5
8, 3, 7, 8.49445
9.50555, 9.49445, 8.50555, 2
0.000000, 8, 10, 10
7
*END

*EOF