Folder: Analysis/XRD:XRR/LCO/22148b_LCOL

File: 22148b_LCOL_XRD_2-Theta_Omega.asc
*TYPE		=  Raw
*CLASS		=  ASCII CLASS
*SAMPLE		=
*COMMENT	=
*FNAME		=  22148b_LCOL_XRD_2-Theta_Omega.asc
*DATE		=  07-Oct-22 20:54

*GROUP_COUNT	=  1
*GONIO		=  SmartLab(In-plane), 0.000000
*ATTACHMENT	=  Z-Phi Stage
*ASC		=  0, 0, 0.000000, 0.000000
*I_MONOCHRO	=  Ge(220)x2, 0.000000
*FILTER		=  None
*C_MONOCHRO	=  None, 0.000000
*SLIT_NAME	=  0, Incident slit
*SLIT_NAME	=  1, Receiving slit # 1
*SLIT_NAME	=  2, Receiving slit # 2
*COUNTER	=  D/teX Ultra 250, 0
*POS_FORMAT	=  0
*SCAN_AXIS	=  2Theta/Omega
*MEAS_MODE	=  Continuous Scanning
*TARGET		=  29
*XRAY_CHAR	=  K-ALPHA1
*WAVE_LENGTH1	=  1.54059
*WAVE_LENGTH2	=  1.54441
*THICKNESS	=  0, 0.000000
*MU		=  0, 0.000000
*SCAN_MODE	=  2Theta/Omega
*SPEED_DIM	=  sec./step
*XUNIT		=  deg.
*YUNIT		=  counts
*SCALE_MODE	=  1
*REP_COUNT	=  0
*SE_COUNT	=  0
*STD_MATERIAL	=  Unknown, Unknown, 0.000000, 0.000000, 0.000000, 0.000000, 0.000000, 0.000000
*LATT_CONS	=  0, Unknown, Unknown, 0.000000, 0.000000, 0.000000, 0.000000, 0.000000, 0.000000
*SEC_COUNT	=  2
*TSPEC_SIZE	=  0
*EXTRA_SIZE	=  0
*MEMO		=

*BEGIN
*GROUP		=  0
*START		=  42
*STOP		=  52
*STEP		=  0.01
*OFFSET		=  0.0648
*SPEED		=  23.9588
*SLIT_SPEC	=  0, 0.400mm, 0.4, 0.000000
*SLIT_SPEC	=  1, 0.400mm, 0.4, 0.000000
*SLIT_SPEC	=  2, 0.400mm, 0.4, 0.000000
*KV		=  40
*MA		=  30
*LOW		=  0.000000
*HIGH		=  0.000000
*CTEMPER	=  0, 0.000000
*CTEMPER	=  1, 0.000000
*CTEMPER	=  2, 0.000000
*PAREX		=  0, 0.000000
*PAREX		=  1, 0.000000
*PAREX		=  2, 0.000000
*PAREX		=  3, 0.000000
*PAREX		=  4, 0.000000
*PAREX		=  5, 0.000000
*PAREX		=  6, 0.000000
*PAREX		=  7, 0.000000
*PAREX		=  8, 0.000000
*PAREX		=  9, 0.000000
*PAREX		=  10, 0.000000
*PAREX		=  11, 0.000000
*PAREX		=  12, 0.000000
*PAREX		=  13, 0.000000
*PAREX		=  14, 0.000000
*PAREX		=  15, 0.000000
*FULL_SCALE	=  216244
*INDEX		=  0, 0, 0
*COUNT		=  1001
17.4944, 10.5056, 11.4944, 6.50555
13, 18.4944, 12.5056, 15.4944
14.5056, 17.4944, 23.5056, 5
11, 12, 14, 11
16, 22.4944, 17.5056, 18
8, 18, 9, 21
15, 17, 7, 17
5.49445, 5.50555, 24, 15
27, 24, 11, 23
25, 30, 9, 28
17, 18.4944, 24, 23.5056
23.4944, 18.5056, 22.9889, 24
29.5056, 26, 30.4944, 24.0111
17.9889, 27.5056, 16.5056, 29
13.4944, 15, 18.5056, 23
28, 30, 11.4944, 26.5056
24, 9, 10.4944, 18
26, 31.5056, 11.4944, 14.5056
22, 16, 6, 14
20, 12, 14, 24
11.9889, 26.0111, 9, 21
19, 24, 12, 14.9889
15.0111, 17, 19, 10.4944
14, 23, 15.5056, 16
12, 0.000000, 10.4944, 7
21.5056, 15, 18, 12
15, 23.9889, 16.0111, 22.9778
20.0222, 7, 9, 20.4944
12.5056, 19, 23, 23.4944
30, 22.5056, 17, 20.9889
36.0111, 23, 8, 29
29, 66, 45.4944, 23
17.4944, 34.0111, 40, 30
33.9889, 52.0111, 42.9889, 42.0111
35.9889, 51.4944, 45.5167, 43
56.4944, 43.9889, 44.0111, 40
41.5056, 43.9889, 51.0111, 48
33.4944, 43.5056, 46, 27
44.9889, 31, 36.4944, 42.5167
42, 43, 53, 30
27.9889, 42, 54.0111, 31.4944
42, 46.5056, 37.9889, 43.0111
26.4944, 29.5056, 36.4944, 30.4833
32.0222, 30, 59.4944, 24.5056
39.4944, 44.4944, 30.0111, 28.4944
27.5056, 33.9889, 31, 30.5056
22, 26, 17, 30.5056
25.4944, 32.5056, 8, 26.4944
24.5056, 27.9889, 20.0111, 20.4944
20.4944, 40.0111, 24, 30
31, 18, 30, 33
43.4944, 41, 32.5056, 44
40.4944, 34.5056, 42.4944, 42
45.4944, 34.5056, 64.5056, 47.4944
62.5056, 43.4833, 57.5056, 44.4944
71.5056, 55.0111, 75.9778, 61.0111
59.0111, 73, 64.4833, 70.5167
83, 79.9889, 96.4944, 78.5167
100.461, 119.022, 98.4944, 104.506
119, 100, 106.506, 89.9889
131.506, 132.011, 107.494, 121
114, 109, 108.506, 134.506
135.989, 118.506, 131.483, 117.517
136, 124.494, 125, 130.989
128, 118.494, 110.022, 115
117.494, 127.506, 118.494, 119
102, 125.494, 133.506, 102.494
104.517, 64.9889, 105.011, 82
70.4944, 96, 82.5056, 67
76.4944, 69.5056, 69.4833, 79.5056
67.5056, 57.5056, 81.4944, 70
54.4944, 45.0111, 47.4833, 53.5167
38.4944, 40.5056, 35, 49.4833
58.0111, 49, 33.4944, 52.0111
65, 51.4833, 84.5056, 66.5056
78.4944, 84.5056, 114.978, 147.022
122, 140.483, 150, 154
140.517, 170.494, 205.989, 252.989
203.011, 279.989, 293.494, 301.989
307.517, 343.506, 373.989, 387
426.483, 469.494, 519.978, 573.506
561.494, 582.011, 694.989, 700.539
776.428, 799.056, 782.956, 874.539
863.911, 907.067, 1011.93, 1097.06
1087.47, 1157.97, 1179.08, 1221.93
1347.02, 1384.49, 1375.01, 1497.47
1539.47, 1573.53, 1679.45, 1746.47
1721.02, 1803.47, 1957.04, 1939.38
1999.12, 2261.92, 2151.54, 2296.44
2332.04, 2376.96, 2382.02, 2493.98
2524.93, 2663.63, 2717.38, 2794.94
2836.17, 2803.89, 2859.57, 2939.46
3007.94, 3000.01, 3102.01, 3312.45
3248.04, 3371.51, 3336.48, 3458.94
3407.55, 3566.45, 3548, 3584.02
3601.42, 3724.63, 3623.84, 3721.62
3825.97, 3785.04, 3731.41, 3893.08
3863.49, 3995.49, 3975.94, 3811.51
3868.01, 3946.49, 4099.97, 3988.04
4008, 3766.08, 4053.88, 4076.52
4069.92, 3898.55, 3911.55, 3902.46
3878.06, 3893.38, 3921.12, 3944.01
3783.9, 3849.65, 3710.44, 3639.92
3793.09, 3631.47, 3617.52, 3487
3433.07, 3537.47, 3458, 3450.1
3404.36, 3322.03, 3138.43, 3212.63
3109.02, 3061.89, 2949.59, 2972.51
2890.51, 2845.08, 2806.89, 2748.48
2577.13, 2490.97, 2385.49, 2508.49
2397.52, 2213.01, 2231.96, 2231.12
2003.98, 1972.46, 1932.55, 1822.98
1813, 1793.02, 1688.47, 1639.56
1491.47, 1532, 1420.51, 1473.52
1297.51, 1227.98, 1248, 1150.54
1057.03, 979.967, 951.022, 886.011
833.989, 864.561, 750.956, 714.472
651.528, 575.561, 605.956, 513.506
451.528, 446.494, 452.989, 436.506
377.011, 358.506, 353.483, 296
284.033, 285.483, 234.517, 217.517
239.461, 231.033, 176.989, 188
193.483, 172.022, 179.989, 156
149, 169, 173, 156.011
176, 170, 180, 199.483
199.483, 197, 221.517, 238.011
220.483, 265.517, 249.472, 291.494
302.011, 292.978, 331.517, 325.517
356.978, 357.517, 386.989, 423
445.483, 457.494, 443.506, 402.494
461.506, 490.506, 497, 457.506
490.472, 480.55, 503.483, 582.483
568.989, 586.494, 611.472, 608.022
680, 625.033, 690.517, 603.989
693.439, 833.033, 680.506, 710
714.978, 766.989, 748.506, 799.022
750.472, 783.011, 737.483, 742.044
781.011, 813.978, 902.506, 845.978
812.483, 891.539, 868.439, 883.056
883.956, 966.483, 945.011, 1043.04
979.933, 1044.03, 1067.01, 1079.99
1115.51, 1181.97, 1240.46, 1225.07
1264.45, 1215.98, 1323.02, 1342.99
1498.04, 1488.48, 1615.44, 1707.99
1840.49, 1911.48, 2087.47, 2392.01
2520.45, 2800.04, 3217.43, 3582.41
4102.88, 4766.48, 5627.39, 6653.88
8048.36, 10217.2, 14563.4, 24064.3
52751, 148613, 343512, 599001
989455, 1440224.4, 1632863.9, 1877084.9
2411745.5, 3026583.5, 3803715.8, 4170683.3
2900455.5, 1173694.6, 379037, 146546
83587.7, 55959.9, 38266.3, 27112.5
19830.2, 14738.4, 11212.3, 8728.26
7019.28, 5742.51, 4698.26, 3888.45
3401.64, 2839.01, 2447.07, 2161.46
1806.03, 1605.57, 1439.99, 1331.04
1118.48, 1090.51, 985.022, 865.506
691.011, 705.044, 572.989, 587.494
556.978, 504.517, 449.022, 440.011
366.483, 350.506, 309.989, 326.011
266.022, 258.494, 265.483, 243.011
221.506, 214.989, 223.989, 196.517
163.494, 224, 198.506, 177.506
171, 153.483, 165.011, 151.494
163.517, 147.494, 135, 144.506
149, 137, 116.011, 136.956
117.528, 132.506, 141.494, 123.494
122.517, 129, 124.494, 120.472
113.022, 99.0111, 113.989, 122.506
113.506, 100.483, 91.0222, 94.4944
115.978, 101.022, 89.4944, 100.011
96.4833, 106.517, 106.494, 83.4833
103.506, 110.011, 74.9889, 82
82.5167, 74.4722, 64.5167, 49.5056
91, 59.9889, 48.0111, 46.5056
48, 53, 51.4944, 57.4944
43.0111, 41, 47, 39
45.9889, 53, 46.0111, 31.4944
46, 38.5056, 38.4833, 24.5167
33.4944, 17, 31, 28.5056
12, 21.4944, 27, 11.5056
15, 22, 9, 21
20.4944, 20.5056, 13, 6
17.4944, 12.5056, 21, 13
12, 12.4944, 15.5056, 7
12, 11, 23, 15
17.4944, 16.5056, 18.4833, 17.5167
12.4944, 25.5056, 13, 13
8, 18, 26, 20.4944
21.5056, 37, 18, 11
25, 33.4944, 13.5056, 16
7, 27, 16, 30.4944
27.5056, 19.9889, 24.0111, 27.4944
21.5056, 19, 23, 27.4944
16.5056, 21, 21, 22.4944
22.5056, 17, 22.9889, 28.4944
12.5167, 12, 16, 22.4944
16.5056, 6.49445, 10.5056, 17.4833
16.5167, 24, 17, 21.4944
23.5056, 15.4944, 16.5056, 8
13, 15.9889, 25.5056, 23.4944
10.0111, 8.49445, 15.5056, 12
10, 17, 15, 12
18, 14, 10, 16
10, 10, 11, 8.49445
19.5056, 8, 21, 13
18, 14, 10, 6
10, 6, 5, 3
4, 7, 2, 4
5, 9, 5, 12.4944
2.50555, 7, 12, 12
9.49445, 14.5056, 13, 15
10, 6, 2, 5
13, 8, 12, 19
6, 9, 5, 14
15, 11, 13.4944, 10.5056
27, 16, 4, 8
7, 16, 1, 0.000000
8, 13, 14, 12
7, 12, 9, 2
13.4944, 9.50555, 16, 2
12.4944, 7.50555, 12, 11.4944
12.5056, 14.4944, 4.50555, 19
10, 12, 13, 12
8.49445, 9, 13.5056, 4.49445
7.50555, 7, 5.49445, 5.50555
9, 8, 12.4944, 3.50555
11, 12, 5, 12.4944
17.5056, 0.000000, 8.49445, 5.50555
8, 15, 5, 2
5, 17.9889, 6.01111, 6
7, 9, 6, 11
7, 10, 8, 6
6, 6, 12, 11
4, 10.4944, 7.49445, 11.0111
2.49445, 9.50555, 11, 12
5, 5.49445, 5.50555, 11
11.4944, 16, 12.5056, 5
4, 7.98889, 14.0111, 7
10, 17, 8.49445, 8.50555
16, 12, 7, 8
4, 12, 7, 2
7.49445, 13.5056, 7, 10
11, 5, 3, 5.49445
10.5056, 19, 4.49445, 0.505554
6, 4, 6, 4
11.4944, 9.50555, 8, 7
13, 9, 13.4944, 5.50555
16, 13, 9, 11
18, 9, 7, 16
5
*END

*BEGIN
*GROUP		=  0
*START		=  0.4
*STOP		=  4.5
*STEP		=  0.01
*OFFSET		=  0.0648
*SPEED		=  20.6484
*SLIT_SPEC	=  0, 1.000mm, 1, 0.000000
*SLIT_SPEC	=  1, 1.000mm, 1, 0.000000
*SLIT_SPEC	=  2, 1.000mm, 1, 0.000000
*KV		=  40
*MA		=  30
*LOW		=  0.000000
*HIGH		=  0.000000
*CTEMPER	=  0, 0.000000
*CTEMPER	=  1, 0.000000
*CTEMPER	=  2, 0.000000
*PAREX		=  0, 0.000000
*PAREX		=  1, 0.000000
*PAREX		=  2, 0.000000
*PAREX		=  3, 0.000000
*PAREX		=  4, 0.000000
*PAREX		=  5, 0.000000
*PAREX		=  6, 0.000000
*PAREX		=  7, 0.000000
*PAREX		=  8, 0.000000
*PAREX		=  9, 0.000000
*PAREX		=  10, 0.000000
*PAREX		=  11, 0.000000
*PAREX		=  12, 0.000000
*PAREX		=  13, 0.000000
*PAREX		=  14, 0.000000
*PAREX		=  15, 0.000000
*FULL_SCALE	=  49805.4
*INDEX		=  0, 0, 0
*COUNT		=  411
741964, 754621, 767409, 778731
788356, 799176, 807245, 818308
825968, 830404, 837751, 840287
844549, 843055, 840481, 831447
821783, 807797, 789287, 766246
741903, 713523, 682918, 652308
617519, 581148, 546997, 512930
477053, 442966, 412306, 379500
352557, 324877, 298915, 275481
252505, 232904, 212726, 195953
180038, 166103, 153139, 140585
128836, 119560, 110482, 101357
94628, 87532, 81309.5, 75352
69906, 65147, 60723.5, 56665.5
52472.5, 49574.5, 46380.5, 43846.5
40755, 38452, 36448, 34236.5
32147.5, 30436.5, 28772, 27314
25732.5, 24773.5, 23896.5, 22900
21980, 20972, 20065, 19435.5
18745.5, 18181.5, 17538.5, 17188
16418.5, 15908, 15811.5, 15291.5
14832, 14486, 14084, 14047
13571.5, 13177, 12832.5, 12779.5
12492.5, 12313.5, 12012, 11577.5
11657.5, 11293, 10778, 10709.5
10477.5, 10380.5, 9991, 9966.5
9527, 9514, 9135, 8926
8843, 8610.5, 8307.5, 8146.5
8125.5, 7874.5, 7595.5, 7293.5
7049.5, 6834, 6703.5, 6692
6318.5, 6238, 5883.5, 5738
5589, 5271, 5179.5, 4971.5
5004.5, 4794.5, 4605.5, 4311
4308.5, 4085, 3872, 3868.5
3734.5, 3596.5, 3507.5, 3410.5
3321.5, 3242.5, 3209, 3044
2980.5, 2852.5, 2789.5, 2759
2633, 2568, 2516.5, 2465.5
2317.5, 2303, 2364, 2257.5
2269.5, 2188, 2143.5, 2153.5
2077, 2115.5, 2049, 2110
2043, 1950, 2020.5, 1916
1957, 1907.5, 1864.5, 1888.5
1893, 1795, 1846.5, 1812
1812.5, 1806.5, 1768, 1781.5
1710, 1779, 1710, 1678.5
1771.5, 1699, 1715.5, 1583.5
1659, 1606.5, 1627.5, 1599
1499, 1565, 1599.5, 1551.5
1567, 1431, 1473.5, 1396
1456.5, 1368.5, 1263, 1357.5
1371.5, 1263.5, 1303, 1246.5
1239.5, 1158.5, 1219, 1152.5
1179, 1135.5, 1135.5, 1066
1036.5, 1088.5, 1051, 1027
1021.5, 992.001, 994, 893.5
922.5, 916.5, 871.001, 883.5
851.5, 831.999, 826.501, 799
853, 725.5, 793, 799
797, 740.5, 794, 776
733.5, 715, 751.5, 704
693.5, 719.001, 695.5, 655
729, 681.5, 679.5, 679.5
693, 724, 657.5, 646.5
643, 662.5, 688.5, 720
618.999, 712, 701, 698
733.5, 686, 680, 701.5
659.5, 698, 692, 642.5
729.5, 664, 662, 675
706, 637, 671, 669.5
689, 644.5, 629.5, 622
585, 613.5, 604, 624
662.5, 620.5, 673, 583.5
657.5, 609, 593.5, 587.5
633, 589.5, 610.5, 588.5
570, 504.5, 581, 558.5
508.5, 514.5, 484, 487
549.5, 509.5, 501, 513.5
508, 500, 507, 525.5
521, 467.5, 474.5, 515
472.5, 477.5, 441, 450
428.5, 430, 474.5, 439.5
433.5, 473, 464, 444
453, 504, 440, 452
485.5, 448.5, 428.5, 448.5
455.5, 461.5, 456, 484
453, 475, 482.5, 471.5
447.5, 432, 489, 479
459, 488.5, 455.5, 453.5
482, 457, 452.5, 465.5
406.5, 450, 480, 456
504.5, 444, 455.5, 448
471.5, 452, 470.5, 479
510, 461, 463.5, 475
474.5, 462.5, 442.5, 487.5
469, 424.5, 393, 474.5
450.5, 435, 456.5, 452.5
488, 478.5, 460.5, 454
466, 419.5, 442, 443
436, 431.5, 440.5, 406
429.5, 445, 411, 414
433.5, 435.5, 391, 448
397.5, 415, 392.5
*END

*EOF