Folder: Analysis/XRD:XRR/LCO/22148a_LCOL

File: 22148a_LCOL_XRD.csv
#twotheta, yobs, ycal, bkg, diff
42.0,9.9889,1.0,1.0,1.0
42.05,19.5056,1.0,1.0,1.0
42.1,18.4944,1.0,1.0,1.0
42.15,21.5056,1.0,1.0,1.0
42.2,5.4944,1.0,1.0,1.0
42.25,9.4944,1.0,1.0,1.0
42.3,19.4944,1.0,1.0,1.0
42.35,21.0111,1.0,1.0,1.0
42.4,19.5056,1.0,1.0,1.0
42.45,21.0,1.0,1.0,1.0
42.5,12.0,1.0,1.0,1.0
42.55,30.4944,1.0,1.0,1.0
42.6,18.0,1.0,1.0,1.0
42.65,31.0,1.0,1.0,1.0
42.7,36.0,1.0,1.0,1.0
42.75,21.4944,1.0,1.0,1.0
42.8,30.5056,1.0,1.0,1.0
42.85,14.0,1.0,1.0,1.0
42.9,16.5056,1.0,1.0,1.0
42.95,15.4944,1.0,1.0,1.0
43.0,9.5056,1.0,1.0,1.0
43.05,13.0,1.0,1.0,1.0
43.1,20.0,1.0,1.0,1.0
43.15,20.4944,1.0,1.0,1.0
43.2,15.0,1.0,1.0,1.0
43.25,18.0,1.0,1.0,1.0
43.3,28.5056,1.0,1.0,1.0
43.35,23.4944,1.0,1.0,1.0
43.4,30.0,1.0,1.0,1.0
43.45,30.0,1.0,1.0,1.0
43.5,43.5056,1.0,1.0,1.0
43.55,47.0,1.0,1.0,1.0
43.6,63.4944,1.0,1.0,1.0
43.65,43.0111,1.0,1.0,1.0
43.7,42.5167,1.0,1.0,1.0
43.75,46.0111,1.0,1.0,1.0
43.8,37.5056,1.0,1.0,1.0
43.85,30.0,1.0,1.0,1.0
43.9,43.9889,1.0,1.0,1.0
43.95,18.5056,1.0,1.0,1.0
44.0,21.4944,1.0,1.0,1.0
44.05,21.0,1.0,1.0,1.0
44.1,16.4944,1.0,1.0,1.0
44.15,27.4944,1.0,1.0,1.0
44.2,55.0,1.0,1.0,1.0
44.25,61.5056,1.0,1.0,1.0
44.3,59.4944,1.0,1.0,1.0
44.35,81.5056,1.0,1.0,1.0
44.4,99.5167,1.0,1.0,1.0
44.45,106.0,1.0,1.0,1.0
44.5,102.0111,1.0,1.0,1.0
44.55,135.5056,1.0,1.0,1.0
44.6,148.0,1.0,1.0,1.0
44.65,119.4944,1.0,1.0,1.0
44.7,99.0,1.0,1.0,1.0
44.75,95.4944,1.0,1.0,1.0
44.8,82.0,1.0,1.0,1.0
44.85,50.5056,1.0,1.0,1.0
44.9,32.0,1.0,1.0,1.0
44.95,41.4944,1.0,1.0,1.0
45.0,55.4944,1.0,1.0,1.0
45.05,72.4944,1.0,1.0,1.0
45.1,143.4944,1.0,1.0,1.0
45.15,293.0,1.0,1.0,1.0
45.2,382.0,1.0,1.0,1.0
45.25,540.9889,1.0,1.0,1.0
45.3,839.45,1.0,1.0,1.0
45.35,1092.55,1.0,1.0,1.0
45.4,1431.48,1.0,1.0,1.0
45.45,1649.47,1.0,1.0,1.0
45.5,2059.52,1.0,1.0,1.0
45.55,2465.96,1.0,1.0,1.0
45.6,2843.51,1.0,1.0,1.0
45.65,3105.46,1.0,1.0,1.0
45.7,3626.93,1.0,1.0,1.0
45.75,3903.04,1.0,1.0,1.0
45.8,4087.06,1.0,1.0,1.0
45.85,4229.49,1.0,1.0,1.0
45.9,4641.0,1.0,1.0,1.0
45.95,4533.46,1.0,1.0,1.0
46.0,4664.11,1.0,1.0,1.0
46.05,4452.83,1.0,1.0,1.0
46.1,4506.43,1.0,1.0,1.0
46.15,4219.47,1.0,1.0,1.0
46.2,3862.46,1.0,1.0,1.0
46.25,3529.46,1.0,1.0,1.0
46.3,3121.91,1.0,1.0,1.0
46.35,2684.57,1.0,1.0,1.0
46.4,2295.47,1.0,1.0,1.0
46.45,1966.51,1.0,1.0,1.0
46.5,1556.52,1.0,1.0,1.0
46.55,1216.98,1.0,1.0,1.0
46.6,927.5389,1.0,1.0,1.0
46.65,645.9889,1.0,1.0,1.0
46.7,363.5389,1.0,1.0,1.0
46.75,260.4944,1.0,1.0,1.0
46.8,178.5167,1.0,1.0,1.0
46.85,167.0,1.0,1.0,1.0
46.9,161.9889,1.0,1.0,1.0
46.95,223.9889,1.0,1.0,1.0
47.0,304.9778,1.0,1.0,1.0
47.05,392.4722,1.0,1.0,1.0
47.1,505.4944,1.0,1.0,1.0
47.15,574.0,1.0,1.0,1.0
47.2,685.0111,1.0,1.0,1.0
47.25,836.0222,1.0,1.0,1.0
47.3,941.9667,1.0,1.0,1.0
47.35,945.4944,1.0,1.0,1.0
47.4,991.5056,1.0,1.0,1.0
47.45,1061.49,1.0,1.0,1.0
47.5,1099.51,1.0,1.0,1.0
47.55,1147.03,1.0,1.0,1.0
47.6,1269.49,1.0,1.0,1.0
47.65,1422.0,1.0,1.0,1.0
47.7,1870.53,1.0,1.0,1.0
47.75,2551.41,1.0,1.0,1.0
47.8,4296.88,1.0,1.0,1.0
47.85,9479.23,1.0,1.0,1.0
47.9,46472,1.0,1.0,1.0
47.95,1913390.25,1.0,1.0,1.0
48.0,2270837.25,1.0,1.0,1.0
48.05,59564.1,1.0,1.0,1.0
48.1,10828.4,1.0,1.0,1.0
48.15,3970.53,1.0,1.0,1.0
48.2,1873.53,1.0,1.0,1.0
48.25,1101.51,1.0,1.0,1.0
48.3,683.4722,1.0,1.0,1.0
48.35,478.5167,1.0,1.0,1.0
48.4,334.0111,1.0,1.0,1.0
48.45,278.0333,1.0,1.0,1.0
48.5,219.9667,1.0,1.0,1.0
48.55,199.0111,1.0,1.0,1.0
48.6,193.0111,1.0,1.0,1.0
48.65,145.0,1.0,1.0,1.0
48.7,175.9889,1.0,1.0,1.0
48.75,135.5056,1.0,1.0,1.0
48.8,107.5056,1.0,1.0,1.0
48.85,108.0111,1.0,1.0,1.0
48.9,95.0111,1.0,1.0,1.0
48.95,87.4944,1.0,1.0,1.0
49.0,60.0,1.0,1.0,1.0
49.05,46.0,1.0,1.0,1.0
49.1,18.0,1.0,1.0,1.0
49.15,22.9889,1.0,1.0,1.0
49.2,23.0,1.0,1.0,1.0
49.25,12.5056,1.0,1.0,1.0
49.3,15.0111,1.0,1.0,1.0
49.35,20.0,1.0,1.0,1.0
49.4,25.0,1.0,1.0,1.0
49.45,20.5056,1.0,1.0,1.0
49.5,18.0111,1.0,1.0,1.0
49.55,15.4944,1.0,1.0,1.0
49.6,25.0,1.0,1.0,1.0
49.65,18.0,1.0,1.0,1.0
49.7,27.0,1.0,1.0,1.0
49.75,21.0,1.0,1.0,1.0
49.8,7.0,1.0,1.0,1.0
49.85,19.0,1.0,1.0,1.0
49.9,17.4944,1.0,1.0,1.0
49.95,19.0,1.0,1.0,1.0
50.0,22.0,1.0,1.0,1.0
50.05,18.0,1.0,1.0,1.0
50.1,10.5056,1.0,1.0,1.0
50.15,7.4944,1.0,1.0,1.0
50.2,9.0,1.0,1.0,1.0
50.25,12.4944,1.0,1.0,1.0
50.3,13.0,1.0,1.0,1.0
50.35,12.0,1.0,1.0,1.0
50.4,3.0,1.0,1.0,1.0
50.45,15.0,1.0,1.0,1.0
50.5,48.5167,1.0,1.0,1.0
50.55,11.0,1.0,1.0,1.0
50.6,20.0,1.0,1.0,1.0
50.65,20.5056,1.0,1.0,1.0
50.7,18.0,1.0,1.0,1.0
50.75,19.0,1.0,1.0,1.0
50.8,13.5056,1.0,1.0,1.0
50.85,2.4944,1.0,1.0,1.0
50.9,13.0,1.0,1.0,1.0
50.95,17.4944,1.0,1.0,1.0
51.0,6.5056,1.0,1.0,1.0
51.05,9.0,1.0,1.0,1.0
51.1,9.0,1.0,1.0,1.0
51.15,11.9889,1.0,1.0,1.0
51.2,4.0,1.0,1.0,1.0
51.25,7.0,1.0,1.0,1.0
51.3,18.4944,1.0,1.0,1.0
51.35,13.0,1.0,1.0,1.0
51.4,15.5056,1.0,1.0,1.0
51.45,14.0,1.0,1.0,1.0
51.5,14.0,1.0,1.0,1.0
51.55,12.0,1.0,1.0,1.0
51.6,3.0,1.0,1.0,1.0
51.65,11.0,1.0,1.0,1.0
51.7,17.0,1.0,1.0,1.0
51.75,9.0,1.0,1.0,1.0
51.8,11.0,1.0,1.0,1.0
51.85,9.0,1.0,1.0,1.0
51.9,14.0,1.0,1.0,1.0
51.95,6.0,1.0,1.0,1.0
52.0,9.4944,1.0,1.0,1.0
0.44,971042,1.0,1.0,1.0
0.49,1065138.5,1.0,1.0,1.0
0.54,1069938.0,1.0,1.0,1.0
0.59,1009202.0,1.0,1.0,1.0
0.64,879772,1.0,1.0,1.0
0.69,703720,1.0,1.0,1.0
0.74,520062,1.0,1.0,1.0
0.79,358485,1.0,1.0,1.0
0.84,237975,1.0,1.0,1.0
0.89,158133,1.0,1.0,1.0
0.94,107301,1.0,1.0,1.0
0.99,74757,1.0,1.0,1.0
1.04,53607.5,1.0,1.0,1.0
1.09,39922.5,1.0,1.0,1.0
1.14,31060.0,1.0,1.0,1.0
1.19,25865,1.0,1.0,1.0
1.24,22325.5,1.0,1.0,1.0
1.29,19620.502,1.0,1.0,1.0
1.34,17417.002,1.0,1.0,1.0
1.39,15975.0,1.0,1.0,1.0
1.44,14232.002,1.0,1.0,1.0
1.49,12599.002,1.0,1.0,1.0
1.54,11092.002,1.0,1.0,1.0
1.59,10000.502,1.0,1.0,1.0
1.64,8260.501,1.0,1.0,1.0
1.69,7226.0,1.0,1.0,1.0
1.74,6113.001,1.0,1.0,1.0
1.79,5133.5,1.0,1.0,1.0
1.84,4410.5,1.0,1.0,1.0
1.89,3917.0,1.0,1.0,1.0
1.94,3512,1.0,1.0,1.0
1.99,3239,1.0,1.0,1.0
2.04,2929.501,1.0,1.0,1.0
2.09,2840.5,1.0,1.0,1.0
2.14,2726.5,1.0,1.0,1.0
2.19,2607.5,1.0,1.0,1.0
2.24,2558.0,1.0,1.0,1.0
2.29,2312.5,1.0,1.0,1.0
2.34,2172,1.0,1.0,1.0
2.39,1944,1.0,1.0,1.0
2.44,1830.5,1.0,1.0,1.0
2.49,1563,1.0,1.0,1.0
2.54,1424.5,1.0,1.0,1.0
2.59,1288,1.0,1.0,1.0
2.64,1193.5,1.0,1.0,1.0
2.69,1115,1.0,1.0,1.0
2.74,1090.5,1.0,1.0,1.0
2.79,998.0,1.0,1.0,1.0
2.84,956.5001,1.0,1.0,1.0
2.89,859.9998,1.0,1.0,1.0
2.94,879.9999,1.0,1.0,1.0
2.99,871.5001,1.0,1.0,1.0
3.04,786.5002,1.0,1.0,1.0
3.09,827.4998,1.0,1.0,1.0
3.14,839.5002,1.0,1.0,1.0
3.19,773.4995,1.0,1.0,1.0
3.24,721.4999,1.0,1.0,1.0
3.29,649.4999,1.0,1.0,1.0
3.34,647.9998,1.0,1.0,1.0
3.39,617.0001,1.0,1.0,1.0
3.44,588.4998,1.0,1.0,1.0
3.49,559.5002,1.0,1.0,1.0
3.54,540.0003,1.0,1.0,1.0
3.59,523.5004,1.0,1.0,1.0
3.64,516.0001,1.0,1.0,1.0
3.69,478.0001,1.0,1.0,1.0
3.74,510.0003,1.0,1.0,1.0
3.79,480.5003,1.0,1.0,1.0
3.84,463.4998,1.0,1.0,1.0
3.89,506.5003,1.0,1.0,1.0
3.94,484.5002,1.0,1.0,1.0
3.99,488.4998,1.0,1.0,1.0
4.04,466.9996,1.0,1.0,1.0
4.09,405.5003,1.0,1.0,1.0
4.14,433.5001,1.0,1.0,1.0
4.19,412.4998,1.0,1.0,1.0
4.24,444.9999,1.0,1.0,1.0
4.29,422.0,1.0,1.0,1.0
4.34,429.0,1.0,1.0,1.0
4.39,412.4999,1.0,1.0,1.0
4.44,379.0004,1.0,1.0,1.0
4.49,384.9999,1.0,1.0,1.0
4.5,432.0002,1.0,1.0,1.0

File: 22148a_LCOL_XRD_2-Theta_Omega.asc
*TYPE		=  Raw
*CLASS		=  ASCII CLASS
*SAMPLE		=
*COMMENT	=
*FNAME		=  22148a_SCOL_XRD_2-Theta_Omega.asc
*DATE		=  07-Oct-22 02:56

*GROUP_COUNT	=  1
*GONIO		=  SmartLab(In-plane), 0.000000
*ATTACHMENT	=  Z-Phi Stage
*ASC		=  0, 0, 0.000000, 0.000000
*I_MONOCHRO	=  Ge(220)x2, 0.000000
*FILTER		=  None
*C_MONOCHRO	=  None, 0.000000
*SLIT_NAME	=  0, Incident slit
*SLIT_NAME	=  1, Receiving slit # 1
*SLIT_NAME	=  2, Receiving slit # 2
*COUNTER	=  D/teX Ultra 250, 0
*POS_FORMAT	=  0
*SCAN_AXIS	=  2Theta/Omega
*MEAS_MODE	=  Continuous Scanning
*TARGET		=  29
*XRAY_CHAR	=  K-ALPHA1
*WAVE_LENGTH1	=  1.54059
*WAVE_LENGTH2	=  1.54441
*THICKNESS	=  0, 0.000000
*MU		=  0, 0.000000
*SCAN_MODE	=  2Theta/Omega
*SPEED_DIM	=  sec./step
*XUNIT		=  deg.
*YUNIT		=  counts
*SCALE_MODE	=  1
*REP_COUNT	=  0
*SE_COUNT	=  0
*STD_MATERIAL	=  Unknown, Unknown, 0.000000, 0.000000, 0.000000, 0.000000, 0.000000, 0.000000
*LATT_CONS	=  0, Unknown, Unknown, 0.000000, 0.000000, 0.000000, 0.000000, 0.000000, 0.000000
*SEC_COUNT	=  2
*TSPEC_SIZE	=  0
*EXTRA_SIZE	=  0
*MEMO		=

*BEGIN
*GROUP		=  0
*START		=  42
*STOP		=  52
*STEP		=  0.01
*OFFSET		=  0.1659
*SPEED		=  23.9588
*SLIT_SPEC	=  0, 0.400mm, 0.4, 0.000000
*SLIT_SPEC	=  1, 0.400mm, 0.4, 0.000000
*SLIT_SPEC	=  2, 0.400mm, 0.4, 0.000000
*KV		=  40
*MA		=  30
*LOW		=  0.000000
*HIGH		=  0.000000
*CTEMPER	=  0, 0.000000
*CTEMPER	=  1, 0.000000
*CTEMPER	=  2, 0.000000
*PAREX		=  0, 0.000000
*PAREX		=  1, 0.000000
*PAREX		=  2, 0.000000
*PAREX		=  3, 0.000000
*PAREX		=  4, 0.000000
*PAREX		=  5, 0.000000
*PAREX		=  6, 0.000000
*PAREX		=  7, 0.000000
*PAREX		=  8, 0.000000
*PAREX		=  9, 0.000000
*PAREX		=  10, 0.000000
*PAREX		=  11, 0.000000
*PAREX		=  12, 0.000000
*PAREX		=  13, 0.000000
*PAREX		=  14, 0.000000
*PAREX		=  15, 0.000000
*FULL_SCALE	=  779471
*INDEX		=  0, 0, 0
*COUNT		=  1001
9.98889, 11.0111, 12, 15.4944
16, 19.5056, 17, 24
17.4944, 14.5056, 18.4944, 14
7.50555, 12, 10.4944, 21.5056
8.49445, 21.5056, 17, 20
5.49445, 18.5056, 4, 24
2, 9.49445, 23, 17.5056
14, 20, 19.4944, 24.5056
7, 12, 15.9889, 21.0111
11, 17.9889, 24.0111, 22.4944
19.5056, 17, 27.4944, 19.5056
13, 21, 16, 18.4944
26.5056, 17, 12, 28
20, 5, 17, 30.4944
10.5056, 32, 34, 17
18, 22, 29, 22
15, 31, 11, 17.4944
34.5056, 37, 36, 31.4944
29, 22.5056, 23, 21.4944
20.5056, 33, 16, 18.4944
30.5056, 15, 24, 26
35, 14, 18, 19
30, 18.4944, 16.5056, 12.4944
10, 9.50555, 25, 15.4944
11, 23, 15.5056, 17.9889
9.50555, 19.5056, 20, 12
19, 13, 17.4944, 22.5056
20, 14, 20, 12.9889
20.5056, 18.4944, 10.0111, 20.4944
31.5056, 29, 14, 15
15, 20, 34, 17.4944
21.5056, 18, 26, 27
16.9889, 72.5056, 28.5056, 16
26, 39, 37, 23.4944
37.5056, 41, 31, 40
30, 48.4944, 34.4944, 40
36.0111, 30, 34.4944, 22
38.5056, 40.9889, 43.5056, 45
56.4944, 38.0111, 39, 47
44, 44, 28, 23
63.4944, 40, 55.5056, 49.4833
59.5056, 43.0111, 33.4944, 62
44.4944, 56.4944, 42.5167, 27.4944
49.4944, 35.0111, 45.4833, 46.0111
31.4944, 31.5056, 46, 37
37.5056, 37, 37.4944, 25.5056
27, 30, 18.4944, 48.5056
31, 21, 43.9889, 33.0111
22.9889, 33.0111, 16.4944, 18.5056
29, 23, 24, 11
21.4944, 21, 19.5056, 16
27, 21, 12, 17.4944
32, 26.5056, 16.4944, 34
25.4944, 21.0111, 27, 27.4944
22, 36, 34.5056, 32.4944
55, 54.4944, 49.9889, 60.5056
47.0111, 61.5056, 52, 51.9889
66.5056, 67.4944, 59.4944, 69.0111
103.494, 71.9889, 95.5056, 81.5056
83, 87.9889, 81.0222, 113.483
99.5167, 108, 114, 107.989
111, 106, 121.506, 113.506
120.494, 132.989, 102.011, 139
145.483, 142.011, 124, 135.506
152.494, 128.011, 132.494, 138.989
148, 158.506, 119.506, 111.483
127.022, 119.494, 125.494, 111.494
124.011, 129.494, 99, 103.494
117.483, 112.022, 101.494, 95.4944
88.5056, 62.5167, 72, 90.4944
82, 66, 47, 52
62, 50.5056, 44, 49
29, 42.9889, 32, 50.0111
39.9889, 41.0111, 40.4944, 41.4944
42.0111, 39, 53.9889, 51
55.4944, 61.5167, 80.4833, 73.5167
80.4944, 72.4944, 107.989, 119.506
142.494, 156, 143.494, 203.528
209.967, 215.022, 214.494, 293
290, 299.461, 297.033, 347.483
382, 368.494, 487.472, 515.989
527.528, 540.989, 648, 689.506
697.472, 798.033, 839.45, 885.011
963.472, 952.506, 1019.97, 1092.55
1165, 1187.48, 1245.97, 1255.48
1431.48, 1486.03, 1484.52, 1608.47
1642.01, 1649.47, 1774.47, 1931.98
1926.98, 1992.54, 2059.52, 2116.49
2163.92, 2277.52, 2382.51, 2465.96
2583.09, 2568.92, 2738.44, 2728.06
2843.51, 2971.42, 2930.02, 3141.92
3239.13, 3105.46, 3394.96, 3317.48
3400.52, 3490.56, 3626.93, 3680.41
3703.07, 3720.47, 3756.48, 3903.04
3984.48, 4049.92, 4092.52, 4153.56
4087.06, 4297.37, 4263.55, 4272.96
4266.09, 4229.49, 4426.45, 4397.94
4513.56, 4480.97, 4641, 4586.45
4497.48, 4556.53, 4600.54, 4533.46
4728.97, 4586.03, 4570.44, 4601.04
4664.11, 4645.91, 4597.56, 4506.37
4586.71, 4452.83, 4573.09, 4529.02
4416, 4323.51, 4506.43, 4289.57
4322.46, 4378.46, 4246.57, 4219.47
4231.98, 4009.04, 3933.53, 3947.49
3862.46, 3775.62, 3727.43, 3774.52
3581.55, 3529.46, 3401.96, 3350.09
3255.96, 3119.58, 3121.91, 3098.02
3066, 3012.02, 2857.49, 2684.57
2697.54, 2666.99, 2453.46, 2561.06
2295.47, 2224.08, 2192.98, 2073.51
2046.48, 1966.51, 1932.49, 1818.99
1750.53, 1601.53, 1556.52, 1446.52
1383.96, 1330.54, 1181.03, 1216.98
1117.56, 1128.45, 951.067, 942.956
927.539, 846.989, 751.528, 670
654.472, 645.989, 565.033, 537.528
514.461, 474.494, 363.539, 423.506
390.506, 335.989, 320.506, 260.494
262, 234.011, 236.494, 193.494
178.517, 166.011, 147.494, 171.506
165.483, 167, 159, 162.506
138.494, 153.022, 161.989, 154.506
173.494, 143.472, 209.517, 223.989
219.033, 206.483, 234.483, 237.517
304.978, 321.506, 309, 354.506
360.506, 392.472, 385.011, 448.967
429, 471.517, 505.494, 501.517
502.472, 547.539, 590.472, 574
575.506, 632.494, 639.967, 704.989
685.011, 706.033, 729.978, 749.978
760.461, 836.022, 845.494, 884.539
870.472, 909.539, 941.967, 945.517
896.461, 913, 1004.54, 945.494
1009.01, 964.022, 1006.98, 945.483
991.506, 1029.97, 989.033, 988.517
964.978, 1061.49, 1020.02, 1071.93
1081.01, 1072.04, 1099.51, 1047.45
1125.47, 1196.04, 1103.49, 1147.03
1226.51, 1193.51, 1189.98, 1229.94
1269.49, 1307.54, 1367.47, 1331.03
1398.43, 1422, 1519.06, 1526.46
1669.53, 1797.94, 1870.53, 1935.41
2051.03, 2173.07, 2302.89, 2551.41
2782.58, 3067.94, 3412.98, 3878.98
4296.88, 4830.03, 5562.82, 6527.81
7728.93, 9479.23, 11953.3, 15479.7
20933.5, 30164.7, 46472, 73319.2
124588, 246781, 797978, 1913390.3
2993079, 8081479.5, 14760429, 9042081
2270837.3, 544664, 269417, 155430
95244.7, 59564.1, 37981.5, 26718.4
19396.6, 14473.5, 10828.4, 8398.62
6781.24, 5460.12, 4579.55, 3970.53
3273.65, 2870.89, 2506.14, 2277.03
1873.53, 1681.54, 1434, 1326.09
1172.47, 1101.51, 992.989, 899.967
818.044, 783.022, 683.472, 575.033
558, 552.539, 496.967, 478.517
442, 393.011, 376.967, 381.528
334.011, 326.483, 309.528, 291.483
290, 278.033, 266.989, 260.494
273.506, 246, 219.967, 226.044
187.978, 203.506, 203.989, 199.011
205.494, 176, 156.011, 191
193.011, 164, 189.483, 159.506
169.494, 145, 179.494, 173.011
146.989, 130, 175.989, 171.494
150.528, 134, 149.011, 135.506
135.989, 138.494, 149.506, 105
107.506, 123.483, 126.022, 88
118.483, 108.011, 112.506, 112.483
103.506, 103.989, 95.0111, 114.011
87.4722, 81.0222, 68, 87.4944
63.0111, 73.9889, 77.5056, 75
60, 63.4833, 54.5056, 61
54.5056, 46, 51, 60.5056
40.4944, 46.5056, 18, 50
28.4944, 38.0111, 37, 22.9889
17.5056, 30, 31.5056, 24
23, 34, 28.4944, 21
24, 12.5056, 18, 18
[...]
11, 5, 11.4944, 13.5056
17, 9, 17.4944, 13.5056
14, 6, 14, 8
8, 13, 10, 6
12, 6, 22, 18
9.49445
*END

*BEGIN
*GROUP		=  0
*START		=  0.4
*STOP		=  4.5
*STEP		=  0.01
*OFFSET		=  0.1659
*SPEED		=  20.6484
*SLIT_SPEC	=  0, 1.000mm, 1, 0.000000
*SLIT_SPEC	=  1, 1.000mm, 1, 0.000000
*SLIT_SPEC	=  2, 1.000mm, 1, 0.000000
*KV		=  40
*MA		=  30
*LOW		=  0.000000
*HIGH		=  0.000000
*CTEMPER	=  0, 0.000000
*CTEMPER	=  1, 0.000000
*CTEMPER	=  2, 0.000000
*PAREX		=  0, 0.000000
*PAREX		=  1, 0.000000
*PAREX		=  2, 0.000000
*PAREX		=  3, 0.000000
*PAREX		=  4, 0.000000
*PAREX		=  5, 0.000000
*PAREX		=  6, 0.000000
*PAREX		=  7, 0.000000
*PAREX		=  8, 0.000000
*PAREX		=  9, 0.000000
*PAREX		=  10, 0.000000
*PAREX		=  11, 0.000000
*PAREX		=  12, 0.000000
*PAREX		=  13, 0.000000
*PAREX		=  14, 0.000000
*PAREX		=  15, 0.000000
*FULL_SCALE	=  63869.5
*INDEX		=  0, 0, 0
*COUNT		=  411
845353, 881113, 913112, 943814
971042, 995856, 1017605.5, 1035204.5
1054328.5, 1065138.5, 1071292.5, 1076493.5
1077091.5, 1074542, 1069938, 1064046
1056465, 1043319.5, 1028443, 1009202
988334, 963032, 939002, 908868
879772, 847214, 811636, 776445
739222, 703720, 667535, 628463
591796, 554896, 520062, 485671
452086, 419285, 387585, 358485
331159, 304764, 280371, 258396
237975, 218469, 201420, 185364
171033, 158133, 145476, 134747
124908, 114987, 107301, 100083
92693, 86259.5, 80142, 74757
69417.5, 65716.5, 61414.5, 57371.5
53607.5, 50209.5, 47420, 44464
42251.5, 39922.5, 37852, 36257
33894.5, 32403, 31060, 30200
28969.5, 27885.5, 26923, 25865
25210.5, 24392, 23460.5, 22700
22325.5, 21553.5, 21144.5, 20750
20049, 19620.5, 19225.5, 18750.5
18350, 18043.5, 17417, 17515
17112, 16453, 16162, 15975
15491, 15219.5, 14958, 14614.5
14232, 13900.5, 13375.5, 13599
12904, 12599, 12350, 12017
11681.5, 11529.5, 11092, 10793
10668.5, 10179.5, 10118, 10000.5
9330.5, 9102, 8843.5, 8742
8260.5, 8123, 7896, 7623
7458, 7226, 6956.5, 6484
6403, 6179, 6113, 5909
5664.5, 5574, 5265.5, 5133.5
4846.5, 4792, 4763.5, 4592
4410.5, 4291, 4331.5, 4076.5
4054, 3917, 3762, 3718.5
3769, 3540, 3512, 3362
3292.5, 3374, 3264.5, 3239
3258.5, 3170, 3139, 3158.5
2929.5, 2971, 2870.5, 2964.5
2952, 2840.5, 2913.5, 2905.5
2800, 2789.5, 2726.5, 2704.5
2637.5, 2632, 2589.5, 2607.5
2661.5, 2521, 2523.5, 2458.5
2558, 2450.5, 2457, 2508.5
2313, 2312.5, 2185, 2243
2230, 2206, 2172, 2092.5
2088, 2163, 2112.5, 1944
1951, 1913.5, 1801, 1823
1830.5, 1778, 1690.5, 1679
1689.5, 1563, 1529.5, 1524.5
1473.5, 1485.5, 1424.5, 1432
1375, 1373.5, 1312, 1288
1251, 1218.5, 1237.5, 1199.5
1193.5, 1205, 1135, 1088
1115.5, 1115, 1091.5, 1084.5
1019.5, 1025, 1090.5, 1060
965.5, 981, 1046.5, 998
939, 1018.5, 943, 929
956.5, 962.5, 903, 868
906, 860, 929.5, 970.5
964.5, 925.5, 880, 849.5
872, 864, 901.5, 871.5
881.5, 818.5, 835, 850
786.5, 825, 796, 825
810.5, 827.5, 787, 778
803, 768.5, 839.5, 799
749, 782.5, 772, 773.5
761, 757.5, 672.5, 640
721.5, 787, 750.001, 729
629.5, 649.5, 739.5, 661
662, 602, 648, 662.5
612, 651.5, 643.5, 617
562, 534.5, 582, 555.5
588.5, 593, 576.5, 564
543.5, 559.5, 550.5, 549
482.5, 515.5, 540, 547
565.5, 453, 531.499, 523.5
434.5, 478.5, 514.5, 517.5
516, 499.5, 499.5, 538
522.5, 478, 551, 519.5
506.5, 433, 510, 520
507, 491, 523.5, 480.5
473.5, 461.5, 477, 540.5
463.5, 510.5, 478, 469.5
477, 506.5, 522.999, 502
448.5, 522, 484.5, 503
462, 511.5, 474, 488.5
456, 501, 468.5, 434.5
467, 457, 436, 475.5
472, 405.5, 408.5, 441
428, 444.5, 433.5, 434
359, 448.5, 463, 412.5
435, 442.001, 421, 453
445, 432, 434.5, 409.5
436, 422, 449, 451.5
358.5, 404.5, 429, 391
423.5, 378, 426.5, 412.5
431.5, 406.5, 383.5, 433.5
379, 363, 425, 365.5
438, 385, 432
*END

*EOF