Folder: Analysis/XRD:XRR/LCO/22157a_LCOL

File: 22157a_LCOL_XRD.csv
#twotheta, yobs, ycal, bkg, diff
42.0,28.0,1.0,1.0,1.0
42.04,12.5056,1.0,1.0,1.0
42.08,21.0,1.0,1.0,1.0
42.12,24.5056,1.0,1.0,1.0
42.16,23.4944,1.0,1.0,1.0
42.2,31.0,1.0,1.0,1.0
42.24,29.0,1.0,1.0,1.0
42.28,19.0,1.0,1.0,1.0
42.32,24.9889,1.0,1.0,1.0
42.36,39.0,1.0,1.0,1.0
42.4,30.9889,1.0,1.0,1.0
42.44,38.5056,1.0,1.0,1.0
42.48,33.5056,1.0,1.0,1.0
42.52,44.4944,1.0,1.0,1.0
42.56,38.5167,1.0,1.0,1.0
42.6,39.0,1.0,1.0,1.0
42.64,22.0,1.0,1.0,1.0
42.68,20.0,1.0,1.0,1.0
42.72,45.5056,1.0,1.0,1.0
42.76,29.5056,1.0,1.0,1.0
42.8,14.4944,1.0,1.0,1.0
42.84,30.0,1.0,1.0,1.0
42.88,31.0,1.0,1.0,1.0
42.92,17.0,1.0,1.0,1.0
42.96,21.5056,1.0,1.0,1.0
43.0,26.5056,1.0,1.0,1.0
43.04,54.0,1.0,1.0,1.0
43.08,42.0,1.0,1.0,1.0
43.12,64.9889,1.0,1.0,1.0
43.16,56.4833,1.0,1.0,1.0
43.2,51.4944,1.0,1.0,1.0
43.24,60.0,1.0,1.0,1.0
43.28,81.4944,1.0,1.0,1.0
43.32,71.0,1.0,1.0,1.0
43.36,82.0,1.0,1.0,1.0
43.4,64.5056,1.0,1.0,1.0
43.44,48.5056,1.0,1.0,1.0
43.48,62.5056,1.0,1.0,1.0
43.52,25.0,1.0,1.0,1.0
43.56,35.0111,1.0,1.0,1.0
43.6,25.0,1.0,1.0,1.0
43.64,25.9889,1.0,1.0,1.0
43.68,34.5056,1.0,1.0,1.0
43.72,42.9889,1.0,1.0,1.0
43.76,51.0,1.0,1.0,1.0
43.8,65.5167,1.0,1.0,1.0
43.84,73.4944,1.0,1.0,1.0
43.88,113.4833,1.0,1.0,1.0
43.92,108.4944,1.0,1.0,1.0
43.96,133.0,1.0,1.0,1.0
44.0,158.0,1.0,1.0,1.0
44.04,165.0111,1.0,1.0,1.0
44.08,167.0333,1.0,1.0,1.0
44.12,148.5167,1.0,1.0,1.0
44.16,138.4944,1.0,1.0,1.0
44.2,103.9889,1.0,1.0,1.0
44.24,78.9889,1.0,1.0,1.0
44.28,55.0,1.0,1.0,1.0
44.32,41.0,1.0,1.0,1.0
44.36,38.5056,1.0,1.0,1.0
44.4,31.4944,1.0,1.0,1.0
44.44,71.0,1.0,1.0,1.0
44.48,67.4944,1.0,1.0,1.0
44.52,125.4944,1.0,1.0,1.0
44.56,167.9889,1.0,1.0,1.0
44.6,244.5167,1.0,1.0,1.0
44.64,319.0111,1.0,1.0,1.0
44.68,381.4833,1.0,1.0,1.0
44.72,439.4833,1.0,1.0,1.0
44.76,530.45,1.0,1.0,1.0
44.8,509.0333,1.0,1.0,1.0
44.84,528.0333,1.0,1.0,1.0
44.88,438.4722,1.0,1.0,1.0
44.92,393.9778,1.0,1.0,1.0
44.96,329.0111,1.0,1.0,1.0
45.0,221.0,1.0,1.0,1.0
45.04,178.5056,1.0,1.0,1.0
45.08,107.9889,1.0,1.0,1.0
45.12,80.5056,1.0,1.0,1.0
45.16,153.4944,1.0,1.0,1.0
45.2,257.4722,1.0,1.0,1.0
45.24,544.5056,1.0,1.0,1.0
45.28,915.9667,1.0,1.0,1.0
45.32,1447.93,1.0,1.0,1.0
45.36,2201.1,1.0,1.0,1.0
45.4,3031.46,1.0,1.0,1.0
45.44,4056.39,1.0,1.0,1.0
45.48,5306.52,1.0,1.0,1.0
45.52,6716.42,1.0,1.0,1.0
45.56,8036.47,1.0,1.0,1.0
45.6,9436.96,1.0,1.0,1.0
45.64,10793.5,1.0,1.0,1.0
45.68,12131.2,1.0,1.0,1.0
45.72,13385.4,1.0,1.0,1.0
45.76,14416.5,1.0,1.0,1.0
45.8,15775.4,1.0,1.0,1.0
45.84,16270.8,1.0,1.0,1.0
45.88,16765.5,1.0,1.0,1.0
45.92,16891.7,1.0,1.0,1.0
45.96,16650.2,1.0,1.0,1.0
46.0,16561.8,1.0,1.0,1.0
46.04,15386.3,1.0,1.0,1.0
46.08,14373.5,1.0,1.0,1.0
46.12,13210.6,1.0,1.0,1.0
46.16,12161.4,1.0,1.0,1.0
46.2,10498.1,1.0,1.0,1.0
46.24,8820.19,1.0,1.0,1.0
46.28,7522.28,1.0,1.0,1.0
46.32,5919.98,1.0,1.0,1.0
46.36,4711.02,1.0,1.0,1.0
46.4,3618.67,1.0,1.0,1.0
46.44,2445.47,1.0,1.0,1.0
46.48,1670.99,1.0,1.0,1.0
46.52,1064.47,1.0,1.0,1.0
46.56,617.4611,1.0,1.0,1.0
46.6,418.5056,1.0,1.0,1.0
46.64,352.0111,1.0,1.0,1.0
46.68,442.5389,1.0,1.0,1.0
46.72,619.5278,1.0,1.0,1.0
46.76,874.9667,1.0,1.0,1.0
46.8,1118.94,1.0,1.0,1.0
46.84,1413.53,1.0,1.0,1.0
46.88,1542.97,1.0,1.0,1.0
46.92,1819.97,1.0,1.0,1.0
46.96,1874.54,1.0,1.0,1.0
47.0,1881.53,1.0,1.0,1.0
47.04,1839.44,1.0,1.0,1.0
47.08,1809.04,1.0,1.0,1.0
47.12,1679.9,1.0,1.0,1.0
47.16,1511.99,1.0,1.0,1.0
47.2,1329.96,1.0,1.0,1.0
47.24,1156.53,1.0,1.0,1.0
47.28,995.55,1.0,1.0,1.0
47.32,861.0,1.0,1.0,1.0
47.36,885.5278,1.0,1.0,1.0
47.4,1014.98,1.0,1.0,1.0
47.44,1155.45,1.0,1.0,1.0
47.48,1417.47,1.0,1.0,1.0
47.52,1793.47,1.0,1.0,1.0
47.56,2184.48,1.0,1.0,1.0
47.6,2859.96,1.0,1.0,1.0
47.64,3762.62,1.0,1.0,1.0
47.68,4769.38,1.0,1.0,1.0
47.72,6207.43,1.0,1.0,1.0
47.76,8310.06,1.0,1.0,1.0
47.8,12065.1,1.0,1.0,1.0
47.84,19833.6,1.0,1.0,1.0
47.88,48906.707,1.0,1.0,1.0
47.92,293232,1.0,1.0,1.0
47.96,12483457.0,1.0,1.0,1.0
48.0,3012843.0,1.0,1.0,1.0
48.04,158866.375,1.0,1.0,1.0
48.08,38070.9,1.0,1.0,1.0
48.12,15204.3,1.0,1.0,1.0
48.16,7986.0,1.0,1.0,1.0
48.2,5071.08,1.0,1.0,1.0
48.24,3386.53,1.0,1.0,1.0
48.28,2350.11,1.0,1.0,1.0
48.32,1706.0,1.0,1.0,1.0
48.36,1145.94,1.0,1.0,1.0
48.4,865.9778,1.0,1.0,1.0
48.44,614.9889,1.0,1.0,1.0
48.48,437.4944,1.0,1.0,1.0
48.52,351.0,1.0,1.0,1.0
48.56,359.9556,1.0,1.0,1.0
48.6,271.0,1.0,1.0,1.0
48.64,246.5278,1.0,1.0,1.0
48.68,253.5056,1.0,1.0,1.0
48.72,249.4944,1.0,1.0,1.0
48.76,254.4944,1.0,1.0,1.0
48.8,236.0111,1.0,1.0,1.0
48.84,262.5278,1.0,1.0,1.0
48.88,227.5056,1.0,1.0,1.0
48.92,211.4944,1.0,1.0,1.0
48.96,177.4833,1.0,1.0,1.0
49.0,169.5056,1.0,1.0,1.0
49.04,121.0,1.0,1.0,1.0
49.08,118.0222,1.0,1.0,1.0
49.12,85.4944,1.0,1.0,1.0
49.16,61.5056,1.0,1.0,1.0
49.2,35.5056,1.0,1.0,1.0
49.24,29.0111,1.0,1.0,1.0
49.28,25.4944,1.0,1.0,1.0
49.32,30.0111,1.0,1.0,1.0
49.36,19.5056,1.0,1.0,1.0
49.4,46.0,1.0,1.0,1.0
49.44,45.0,1.0,1.0,1.0
49.48,43.5167,1.0,1.0,1.0
49.52,54.4944,1.0,1.0,1.0
49.56,62.0,1.0,1.0,1.0
49.6,73.0111,1.0,1.0,1.0
49.64,55.0,1.0,1.0,1.0
49.68,53.0,1.0,1.0,1.0
49.72,56.5056,1.0,1.0,1.0
49.76,40.0222,1.0,1.0,1.0
49.8,36.9889,1.0,1.0,1.0
49.84,36.0,1.0,1.0,1.0
49.88,19.0,1.0,1.0,1.0
49.92,14.4944,1.0,1.0,1.0
49.96,22.0111,1.0,1.0,1.0
50.0,12.0,1.0,1.0,1.0
50.04,0.0,1.0,1.0,1.0
50.08,16.0,1.0,1.0,1.0
50.12,13.4944,1.0,1.0,1.0
50.16,8.0,1.0,1.0,1.0
50.2,17.9889,1.0,1.0,1.0
50.24,23.0,1.0,1.0,1.0
50.28,34.9889,1.0,1.0,1.0
50.32,14.5056,1.0,1.0,1.0
50.36,26.0,1.0,1.0,1.0
50.4,17.0,1.0,1.0,1.0
50.44,15.0,1.0,1.0,1.0
50.48,17.5056,1.0,1.0,1.0
50.52,25.0,1.0,1.0,1.0
50.56,15.0,1.0,1.0,1.0
50.6,24.0,1.0,1.0,1.0
50.64,13.4944,1.0,1.0,1.0
50.68,12.5056,1.0,1.0,1.0
50.72,6.0,1.0,1.0,1.0
50.76,10.5056,1.0,1.0,1.0
50.8,18.0,1.0,1.0,1.0
50.84,2.0,1.0,1.0,1.0
50.88,14.5056,1.0,1.0,1.0
50.92,9.0,1.0,1.0,1.0
50.96,14.0,1.0,1.0,1.0
51.0,11.0,1.0,1.0,1.0
51.04,18.5056,1.0,1.0,1.0
51.08,8.0,1.0,1.0,1.0
51.12,9.0,1.0,1.0,1.0
51.16,17.0111,1.0,1.0,1.0
51.2,10.0,1.0,1.0,1.0
51.24,13.0,1.0,1.0,1.0
51.28,13.0,1.0,1.0,1.0
51.32,11.4944,1.0,1.0,1.0
51.36,14.0111,1.0,1.0,1.0
51.4,12.4944,1.0,1.0,1.0
51.44,12.0,1.0,1.0,1.0
51.48,11.0,1.0,1.0,1.0
51.52,14.0,1.0,1.0,1.0
51.56,10.0,1.0,1.0,1.0
51.6,13.5056,1.0,1.0,1.0
51.64,18.0,1.0,1.0,1.0
51.68,3.5056,1.0,1.0,1.0
51.72,13.0,1.0,1.0,1.0
51.76,3.4944,1.0,1.0,1.0
51.8,8.0,1.0,1.0,1.0
51.84,4.0,1.0,1.0,1.0
51.88,11.0,1.0,1.0,1.0
51.92,13.0,1.0,1.0,1.0
51.96,11.0,1.0,1.0,1.0
52.0,15.5056,1.0,1.0,1.0

File: 22157a_LCOL_XRD_2-Theta_Omega.asc
*TYPE		=  Raw
*CLASS		=  ASCII CLASS
*SAMPLE		=
*COMMENT	=
*FNAME		=  22157a_LCOL_XRD_2-Theta_Omega.asc
*DATE		=  07-Nov-22 21:19

*GROUP_COUNT	=  1
*GONIO		=  SmartLab(In-plane), 0.000000
*ATTACHMENT	=  Z-Phi Stage
*ASC		=  0, 0, 0.000000, 0.000000
*I_MONOCHRO	=  Ge(220)x2, 0.000000
*FILTER		=  None
*C_MONOCHRO	=  None, 0.000000
*SLIT_NAME	=  0, Incident slit
*SLIT_NAME	=  1, Receiving slit # 1
*SLIT_NAME	=  2, Receiving slit # 2
*COUNTER	=  D/teX Ultra 250, 0
*POS_FORMAT	=  0
*SCAN_AXIS	=  2Theta/Omega
*MEAS_MODE	=  Continuous Scanning
*TARGET		=  29
*XRAY_CHAR	=  K-ALPHA1
*WAVE_LENGTH1	=  1.54059
*WAVE_LENGTH2	=  1.54441
*THICKNESS	=  0, 0.000000
*MU		=  0, 0.000000
*SCAN_MODE	=  2Theta/Omega
*SPEED_DIM	=  sec./step
*XUNIT		=  deg.
*YUNIT		=  counts
*SCALE_MODE	=  1
*REP_COUNT	=  0
*SE_COUNT	=  0
*STD_MATERIAL	=  Unknown, Unknown, 0.000000, 0.000000, 0.000000, 0.000000, 0.000000, 0.000000
*LATT_CONS	=  0, Unknown, Unknown, 0.000000, 0.000000, 0.000000, 0.000000, 0.000000, 0.000000
*SEC_COUNT	=  1
*TSPEC_SIZE	=  0
*EXTRA_SIZE	=  0
*MEMO		=

*BEGIN
*GROUP		=  0
*START		=  42
*STOP		=  52
*STEP		=  0.01
*OFFSET		=  0.0095
*SPEED		=  23.9588
*SLIT_SPEC	=  0, 0.400mm, 0.4, 0.000000
*SLIT_SPEC	=  1, 0.400mm, 0.4, 0.000000
*SLIT_SPEC	=  2, 0.400mm, 0.4, 0.000000
*KV		=  40
*MA		=  30
*LOW		=  0.000000
*HIGH		=  0.000000
*CTEMPER	=  0, 0.000000
*CTEMPER	=  1, 0.000000
*CTEMPER	=  2, 0.000000
*PAREX		=  0, 0.000000
*PAREX		=  1, 0.000000
*PAREX		=  2, 0.000000
*PAREX		=  3, 0.000000
*PAREX		=  4, 0.000000
*PAREX		=  5, 0.000000
*PAREX		=  6, 0.000000
*PAREX		=  7, 0.000000
*PAREX		=  8, 0.000000
*PAREX		=  9, 0.000000
*PAREX		=  10, 0.000000
*PAREX		=  11, 0.000000
*PAREX		=  12, 0.000000
*PAREX		=  13, 0.000000
*PAREX		=  14, 0.000000
*PAREX		=  15, 0.000000
*FULL_SCALE	=  1154777.1
*INDEX		=  0, 0, 0
*COUNT		=  1001
28, 30, 26, 22.4944
12.5056, 25.4944, 28, 20.5056
21, 24, 13.4944, 23
24.5056, 4, 18.4944, 7.50555
23.4944, 29.5056, 17, 11.4944
31, 25, 28, 21.5056
29, 19.9889, 11.5056, 21.5056
19, 22, 33, 19
24.9889, 22.0111, 35, 26.4944
39, 27, 32, 41.5056
30.9889, 43.0111, 30, 56.4944
38.5056, 40.4944, 37.5056, 33.4944
33.5056, 37.4944, 34.5056, 48
44.4944, 55, 43, 42.9889
38.5167, 24.4944, 41.5056, 28
39, 48.4944, 36.5056, 26.4944
22, 42, 49.4944, 37.0111
20, 26, 41, 17.4944
45.5056, 22, 21, 32.4944
29.5056, 23, 17.9889, 29.0111
14.4944, 25.5056, 42, 13
30, 19, 22.4944, 38.5056
31, 21.9889, 32.0111, 12
17, 9, 21.4944, 36
21.5056, 29, 20, 27.4944
26.5056, 23.4944, 20.5056, 56
54, 34.4833, 31.5167, 47
42, 39, 55, 42
64.9889, 67.5056, 38.5056, 51
56.4833, 55.5167, 63, 51
51.4944, 52.9889, 61.5056, 58.5056
60, 43.5056, 64, 72.4944
81.4944, 75.5056, 87.4944, 79.4944
71, 81.5167, 67, 82.4944
82, 53.5056, 61.4944, 63
64.5056, 53.9778, 38.5167, 75
48.5056, 46, 28, 50.4944
62.5056, 56, 45.4944, 28.5056
25, 29.4944, 30, 19.4944
35.0111, 34, 43, 28
25, 26, 43, 18
25.9889, 21.5056, 30.4944, 38.5056
34.5056, 15, 34.9889, 48.0111
42.9889, 41.0111, 47, 44.4944
51, 52.5056, 58.9778, 72
65.5167, 62, 63, 80
73.4944, 85, 84.4944, 121.011
113.483, 82.0222, 101.978, 127.517
108.494, 99.4944, 165.494, 118.011
133, 119.506, 140.989, 128
158, 144, 176.506, 134.494
165.011, 148.989, 160.494, 160.978
167.033, 130.494, 137.506, 178.483
148.517, 111.506, 133.483, 113.517
138.494, 118.483, 130.528, 102.989
103.989, 94.0111, 102.506, 85.5056
78.9889, 67.5056, 52.5056, 79
55, 63.4944, 50, 66
41, 44.5056, 38.4944, 50.4944
38.5056, 32, 22.5056, 32
31.4944, 46.4944, 55.5056, 67
71, 55.5056, 69.4833, 35.5167
67.4944, 84.4833, 102.494, 146.022
125.494, 140.506, 153.494, 162.989
167.989, 198.022, 224.989, 221.483
244.517, 315, 306.989, 312
319.011, 324.461, 383.033, 358.506
381.483, 415.978, 435, 436.022
439.483, 427.989, 466.011, 468.033
530.45, 480.022, 492.506, 502.483
509.033, 452.944, 487.044, 475.45
528.033, 454.528, 463.45, 444.056
438.472, 484, 433.494, 435.011
393.978, 387.033, 369.494, 342
329.011, 293.506, 302.472, 267.011
221, 168.528, 200.506, 143.483
178.506, 166, 118.517, 98.9889
107.989, 90.0222, 75.9889, 71.5056
80.5056, 72.4833, 120.506, 105.506
153.494, 197.494, 177.506, 241
257.472, 293.022, 361.472, 452.011
544.506, 582.967, 721.472, 788.989
915.967, 1065.51, 1195.47, 1251.51
1447.93, 1648.01, 1750.51, 2012.87
2201.1, 2294.46, 2539.48, 2831.96
3031.46, 3322.55, 3568.41, 3820.01
4056.39, 4349.04, 4608.89, 5062.93
5306.52, 5511.51, 6017.98, 6154.9
6716.42, 6902.04, 7191.32, 7705.16
8036.47, 8189.82, 8783.51, 8933.08
9436.96, 9775.79, 10120.1, 10423.8
10793.5, 11292.1, 11458.5, 12049.2
12131.2, 12557.3, 12950.1, 13169
13385.4, 13940.3, 14244.9, 14373
14416.5, 15045.1, 15235, 15390.5
15775.4, 15840.5, 16035.4, 16252.3
16270.8, 16288.1, 16660.8, 16688.4
16765.5, 16701.6, 17111.6, 16874
16891.7, 16755.7, 16563.9, 16718
16650.2, 16502, 16514.4, 16343.7
16561.8, 16120.7, 16127.3, 15633.7
15386.3, 15473.3, 15166.9, 14812.4
14373.5, 14150.8, 14010.5, 13648.9
13210.6, 13140.5, 12541.6, 12353.5
12161.4, 11438.1, 11181.4, 10848.6
10498.1, 10074.1, 9797.53, 9426
8820.19, 8519.34, 8172.53, 7901.26
7522.28, 7001.06, 6749.09, 6368.73
5919.98, 5617.45, 5373.49, 4946.07
4711.02, 4404.03, 4011.56, 3706.94
3618.67, 3149.43, 2955.61, 2750.57
2445.47, 2287.01, 2091.97, 1889.09
1670.99, 1517.52, 1360.49, 1153.08
1064.47, 951.011, 802.517, 699.55
617.461, 557.506, 509.528, 456.022
418.506, 384.494, 348.494, 348.967
352.011, 368.506, 367.978, 452.011
442.539, 494.472, 535.483, 556.967
619.528, 645.989, 703.461, 719.539
874.967, 943, 949.978, 1074.03
1118.94, 1166.06, 1239.93, 1288.49
1413.53, 1441.52, 1513.94, 1501.99
1542.97, 1685.08, 1752.46, 1733.99
1819.97, 1741.06, 1880.46, 1927.99
1874.54, 1917.02, 1921.43, 1907.48
1881.53, 1873.99, 1975.55, 1859.02
1839.44, 1984.53, 1811.02, 1854.98
1809.04, 1723.44, 1696.57, 1638.97
1679.9, 1620.62, 1512.46, 1483.57
1511.99, 1463.98, 1342.52, 1305.02
1329.96, 1222.48, 1180.57, 1167.98
1156.53, 1082.49, 1020.99, 980.483
995.55, 1007.01, 965.967, 918.989
861, 939.517, 973.506, 917.967
885.528, 893, 864.022, 922.517
1014.98, 1076.97, 1035.47, 1110.53
1155.45, 1250.04, 1254.46, 1340.06
1417.47, 1531.48, 1605.99, 1633.48
1793.47, 1959.47, 2071.04, 2121.96
2184.48, 2437.44, 2585.51, 2754.03
2859.96, 3049.47, 3162.01, 3472.89
3762.62, 3848.97, 4244.02, 4371.41
4769.38, 4778.87, 5257.06, 5657.94
6207.43, 6648.44, 7119.46, 7681.96
8310.06, 8907.26, 9701.08, 10735.2
12065.1, 13247.3, 14838.2, 17150.4
19833.6, 23575.5, 28932.2, 36754.6
48906.7, 68150.9, 101200, 164458
293232, 605022, 1989721.8, 11237441
12483457, 15848658, 20794890, 9873393
3012843, 990998, 464328, 261333
158866, 104219, 71857.8, 51232.1
38070.9, 29778.5, 23308.8, 18647.1
15204.3, 12430.3, 10710.6, 9388.3
7986, 7126.2, 6264, 5436.14
5071.08, 4581.56, 4144.55, 3767.51
3386.53, 3016.04, 2919.49, 2560.99
2350.11, 2256.46, 2077.97, 1853.54
1706, 1602.57, 1447.46, 1270.09
1145.94, 1121.53, 1052.52, 944.539
865.978, 815.55, 774.45, 702.528
614.989, 605, 545.517, 509.506
437.494, 447.033, 437.472, 388.517
351, 354.506, 340.483, 337.539
359.956, 303.033, 290.494, 263.517
271, 251.483, 278.494, 257.494
246.528, 225, 275.461, 262.517
253.506, 261.022, 279.472, 251.022
249.494, 272, 232, 280.989
254.494, 222.517, 289.494, 249
236.011, 228.483, 243.517, 222.956
262.528, 217.506, 247, 250
227.506, 220.494, 176.989, 187.528
211.494, 194.517, 173.494, 169.989
177.483, 166.033, 182.989, 149.483
169.506, 126.517, 151.483, 132.011
121, 142.494, 118.483, 104.011
118.022, 105.989, 126.506, 90.5056
85.4944, 71, 93.9889, 73
61.5056, 82.0111, 65.4944, 51
35.5056, 44, 36.4944, 34.4944
29.0111, 44.4944, 37.5056, 53
25.4944, 43.4944, 34.4944, 31.5056
30.0111, 34, 24, 29.4944
19.5056, 27.4944, 32.4944, 37.0111
46, 41.4944, 15.5056, 48
45, 33.4944, 51.4944, 58.9889
43.5167, 48.9889, 62.5167, 41
54.4944, 42, 53.5056, 44
62, 49.4944, 64, 66.4944
73.0111, 67, 54, 67.4944
55, 50.5056, 42.9889, 55.5056
53, 53.4944, 50.4944, 48.5056
56.5056, 49, 44.5056, 49.9778
40.0222, 40, 19, 37.4944
36.9889, 19.5167, 32, 32.4944
36, 29.5056, 28.4944, 11.5056
19, 27, 29.4944, 22.5056
14.4944, 33, 23, 16.4944
22.0111, 7, 23.4944, 21.5056
12, 24.4944, 19, 18.5056
0.000000, 6, 18, 16
16, 15, 10.4944, 16.5056
13.4944, 14.5056, 22, 16
8, 8.49445, 24.5056, 8
17.9889, 17.0111, 21, 12
23, 23, 18, 28
34.9889, 5.01111, 30, 29.4944
14.5056, 26.4944, 12, 31.5056
26, 36.4944, 36.5056, 17
17, 20, 25.4944, 11.5056
15, 12, 23, 29.4944
17.5056, 31.4944, 30.5056, 22
25, 16.4944, 13, 6.50555
15, 14, 15, 19
24, 11.4944, 20.5056, 23
13.4944, 17.5056, 9, 17.4944
12.5056, 15, 11, 17
6, 17, 7, 10.4944
10.5056, 6, 18, 7
18, 2, 2, 10
2, 4, 0.000000, 7.49445
14.5056, 17.4944, 23, 11.5056
9, 8, 14, 16
14, 11, 13, 11
11, 17, 3, 15.4944
18.5056, 14, 12, 13
8, 13, 13, 19
9, 13.9889, 10.5056, 16.4944
17.0111, 14.4944, 24.5056, 13
10, 12, 14.4944, 13.5056
13, 13, 9, 20
13, 9.49445, 17.5056, 8
11.4944, 24.5056, 5, 15.9889
14.0111, 9.98889, 10.0111, 4
12.4944, 9.50555, 24.4944, 4.50555
12, 13, 0.000000, 5
11, 7, 13, 22
14, 6, 21, 12
10, 7, 5, 7.49445
13.5056, 2.49445, 10.5056, 0.000000
18, 17, 6, 8.49445
3.50555, 10, 27, 4.49445
13, 9.50555, 15, 2
3.49445, 1.50555, 10, 3
8, 4, 4, 14
4, 6, 9, 9
11, 18, 7, 5
13, 2, 2, 2
11, 7, 6, 11.4944
15.5056
*END

*EOF

File: 22157a_LCOL_XRR_2-Theta_Omega.asc
*TYPE		=  Raw
*CLASS		=  ASCII CLASS
*SAMPLE		=
*COMMENT	=
*FNAME		=  22157a_LCOL_XRR_2-Theta_Omega.asc
*DATE		=  07-Nov-22 14:10

*GROUP_COUNT	=  1
*GONIO		=  SmartLab(In-plane), 0.000000
*ATTACHMENT	=  Z-Phi Stage
*ASC		=  0, 0, 0.000000, 0.000000
*I_MONOCHRO	=  Ge(220)x2, 0.000000
*FILTER		=  None
*C_MONOCHRO	=  None, 0.000000
*SLIT_NAME	=  0, Incident slit
*SLIT_NAME	=  1, Receiving slit # 1
*SLIT_NAME	=  2, Receiving slit # 2
*COUNTER	=  D/teX Ultra 250, 0
*POS_FORMAT	=  0
*SCAN_AXIS	=  2Theta/Omega
*MEAS_MODE	=  Continuous Scanning
*TARGET		=  29
*XRAY_CHAR	=  K-ALPHA1
*WAVE_LENGTH1	=  1.54059
*WAVE_LENGTH2	=  1.54441
*THICKNESS	=  0, 0.000000
*MU		=  0, 0.000000
*SCAN_MODE	=  2Theta/Omega
*SPEED_DIM	=  sec./step
*XUNIT		=  deg.
*YUNIT		=  counts
*SCALE_MODE	=  1
*REP_COUNT	=  0
*SE_COUNT	=  0
*STD_MATERIAL	=  Unknown, Unknown, 0.000000, 0.000000, 0.000000, 0.000000, 0.000000, 0.000000
*LATT_CONS	=  0, Unknown, Unknown, 0.000000, 0.000000, 0.000000, 0.000000, 0.000000, 0.000000
*SEC_COUNT	=  1
*TSPEC_SIZE	=  0
*EXTRA_SIZE	=  0
*MEMO		=

*BEGIN
*GROUP		=  0
*START		=  0.4
*STOP		=  4.5
*STEP		=  0.01
*OFFSET		=  -0.005500
*SPEED		=  5.95853
*SLIT_SPEC	=  0, 1.000mm, 1, 0.000000
*SLIT_SPEC	=  1, 1.000mm, 1, 0.000000
*SLIT_SPEC	=  2, 1.000mm, 1, 0.000000
*KV		=  40
*MA		=  30
*LOW		=  0.000000
*HIGH		=  0.000000
*CTEMPER	=  0, 0.000000
*CTEMPER	=  1, 0.000000
*CTEMPER	=  2, 0.000000
*PAREX		=  0, 0.000000
*PAREX		=  1, 0.000000
*PAREX		=  2, 0.000000
*PAREX		=  3, 0.000000
*PAREX		=  4, 0.000000
*PAREX		=  5, 0.000000
*PAREX		=  6, 0.000000
*PAREX		=  7, 0.000000
*PAREX		=  8, 0.000000
*PAREX		=  9, 0.000000
*PAREX		=  10, 0.000000
*PAREX		=  11, 0.000000
*PAREX		=  12, 0.000000
*PAREX		=  13, 0.000000
*PAREX		=  14, 0.000000
*PAREX		=  15, 0.000000
*FULL_SCALE	=  167085
*INDEX		=  0, 0, 0
*COUNT		=  411
638384, 651973, 664981, 679444
693270, 704743, 717860, 729786
740021, 750045, 761315, 770630
777904, 787711, 794837, 800452
805287, 810275, 811004, 811093
811914, 807878, 802745, 794552
786252, 770119, 752752, 728177
702153, 668430, 629493, 586309
542577, 499051, 454389, 414597
373918, 338642, 305653, 275779
248313, 225064, 202830, 183235
166471, 150554, 136282, 123562
111646, 101154, 92172, 83368.5
76137.5, 69634.5, 63813, 58638.5
53720.5, 50076, 46452, 42788.5
40204, 37106, 35339, 33529
31773.5, 30243.5, 28829, 27685.5
25855, 25237, 24239, 23657.5
22587, 22030.5, 21711.5, 20904.5
20524, 19783.5, 19053.5, 18691
18067.5, 17480.5, 17053.5, 16681
15999, 15523.5, 14893, 14241
13934, 13292.5, 12672.5, 12476.5
11897.5, 11402.5, 10679.5, 10396.5
10051, 9535.5, 9083.5, 8797.5
8303, 7879.5, 7625, 7333.5
6882, 6746, 6433.5, 6157
5655.5, 5373, 5294.5, 4975
4820, 4620, 4245, 4247
4207, 3978.5, 3813, 3673
3660.5, 3475, 3450.5, 3259
3139.5, 3005, 2987, 3083
2874, 2892, 2767.5, 2873
2730, 2746, 2637, 2581
2633, 2516, 2569, 2474.5
2422, 2400, 2347, 2403
2345.5, 2280, 2196, 2222.5
2130.5, 2096, 2096, 2000
2054, 1995, 1871.5, 1854.5
1887, 1790.5, 1750, 1651
1617, 1588.5, 1556.5, 1414.5
1427.5, 1355.5, 1360.5, 1299.5
1185.5, 1167, 1141.5, 1099
1069.5, 1031.5, 967, 931.501
955.5, 876.5, 857, 907.999
768.5, 856, 819, 751
763, 725.5, 693, 691.5
671, 681.5, 719, 671.5
713, 627.5, 671.5, 637
689, 673, 576.5, 652.5
655, 655, 626, 665
671.5, 659, 635.5, 597.5
569.5, 625, 577.5, 602.5
632, 604.5, 570, 559.5
616.5, 609, 582.5, 585
579.5, 505, 540.5, 559
498.5, 564, 515.5, 475
465.5, 468, 433, 454.5
441, 435.5, 426, 432.5
437, 416.5, 384, 379.5
361, 353.5, 365.5, 358
346, 396.5, 318, 361.999
338, 287.5, 316.5, 326.5
324, 284, 292.5, 328
308, 325, 267.5, 277.5
317, 311.5, 296, 328.5
300, 277.5, 324.5, 277
270, 345, 281, 267.5
294.5, 313.5, 291, 300.5
286, 319.5, 279.5, 279.5
308, 355.5, 312, 311.5
303.5, 300, 292, 287
288.5, 300.5, 273.5, 282
265, 265, 258.5, 264
236, 226.5, 288, 266
229, 234.5, 229, 226.5
220.5, 228, 216, 234
210, 225.5, 204, 213
201.5, 205, 209.5, 187.5
200, 192, 196, 201
176.5, 213.5, 198.5, 208
209.5, 181, 160, 210
198, 185.5, 191.5, 177
182.5, 178.5, 198, 202
178.5, 186.5, 195, 178.5
217, 198.5, 200.5, 187.5
183.5, 189.5, 210, 188.5
212.5, 197.5, 158, 188
185.5, 215.5, 185, 157.5
186, 183, 164.5, 196.5
202.5, 179.5, 189, 179.5
149.5, 168, 164, 155
174, 164, 155.5, 172
138.5, 164.5, 145, 136.5
145.5, 168, 167, 143.5
154.5, 161.5, 122, 138.5
128, 180, 134, 120
143, 139, 124, 128
108, 141, 125, 128
125, 121, 154, 124
129, 119.5, 157.5, 124.5
155.5, 132, 142.5, 130
147.5, 151.5, 126.5
*END

*EOF