Folder: Analysis/XRD:XRR/LCO/22157b_LCOT

File: 22157b_LCOT_XRD.csv
#twotheta, yobs, ycal, bkg, diff
42.0,6.0,1.0,1.0,1.0
42.04,9.0,1.0,1.0,1.0
42.08,10.0,1.0,1.0,1.0
42.12,5.4944,1.0,1.0,1.0
42.16,5.0,1.0,1.0,1.0
42.2,12.0,1.0,1.0,1.0
42.24,15.5056,1.0,1.0,1.0
42.28,4.5056,1.0,1.0,1.0
42.32,14.0111,1.0,1.0,1.0
42.36,16.0,1.0,1.0,1.0
42.4,20.5056,1.0,1.0,1.0
42.44,15.4944,1.0,1.0,1.0
42.48,26.5056,1.0,1.0,1.0
42.52,14.4944,1.0,1.0,1.0
42.56,12.5056,1.0,1.0,1.0
42.6,11.0,1.0,1.0,1.0
42.64,14.4944,1.0,1.0,1.0
42.68,8.5056,1.0,1.0,1.0
42.72,9.0,1.0,1.0,1.0
42.76,16.4944,1.0,1.0,1.0
42.8,11.4944,1.0,1.0,1.0
42.84,6.5056,1.0,1.0,1.0
42.88,25.0,1.0,1.0,1.0
42.92,17.0,1.0,1.0,1.0
42.96,26.0,1.0,1.0,1.0
43.0,32.5056,1.0,1.0,1.0
43.04,30.0,1.0,1.0,1.0
43.08,35.0,1.0,1.0,1.0
43.12,33.0,1.0,1.0,1.0
43.16,24.5167,1.0,1.0,1.0
43.2,36.0,1.0,1.0,1.0
43.24,24.0,1.0,1.0,1.0
43.28,21.4944,1.0,1.0,1.0
43.32,19.5056,1.0,1.0,1.0
43.36,10.0,1.0,1.0,1.0
43.4,7.4944,1.0,1.0,1.0
43.44,16.0,1.0,1.0,1.0
43.48,10.0,1.0,1.0,1.0
43.52,9.0,1.0,1.0,1.0
43.56,26.9889,1.0,1.0,1.0
43.6,25.0111,1.0,1.0,1.0
43.64,34.5056,1.0,1.0,1.0
43.68,43.5056,1.0,1.0,1.0
43.72,40.0,1.0,1.0,1.0
43.76,51.0,1.0,1.0,1.0
43.8,45.0111,1.0,1.0,1.0
43.84,80.9778,1.0,1.0,1.0
43.88,49.4944,1.0,1.0,1.0
43.92,58.5056,1.0,1.0,1.0
43.96,42.0111,1.0,1.0,1.0
44.0,26.0,1.0,1.0,1.0
44.04,19.0,1.0,1.0,1.0
44.08,5.0,1.0,1.0,1.0
44.12,10.0,1.0,1.0,1.0
44.16,23.0,1.0,1.0,1.0
44.2,22.0,1.0,1.0,1.0
44.24,33.4944,1.0,1.0,1.0
44.28,49.0222,1.0,1.0,1.0
44.32,43.5056,1.0,1.0,1.0
44.36,86.9889,1.0,1.0,1.0
44.4,80.0,1.0,1.0,1.0
44.44,124.5056,1.0,1.0,1.0
44.48,104.0,1.0,1.0,1.0
44.52,123.4833,1.0,1.0,1.0
44.56,108.4944,1.0,1.0,1.0
44.6,110.4944,1.0,1.0,1.0
44.64,103.0,1.0,1.0,1.0
44.68,80.0111,1.0,1.0,1.0
44.72,60.0,1.0,1.0,1.0
44.76,47.4944,1.0,1.0,1.0
44.8,15.5167,1.0,1.0,1.0
44.84,26.5056,1.0,1.0,1.0
44.88,28.9889,1.0,1.0,1.0
44.92,38.0,1.0,1.0,1.0
44.96,65.0,1.0,1.0,1.0
45.0,109.0222,1.0,1.0,1.0
45.04,130.5056,1.0,1.0,1.0
45.08,153.0111,1.0,1.0,1.0
45.12,194.9778,1.0,1.0,1.0
45.16,219.9889,1.0,1.0,1.0
45.2,273.0,1.0,1.0,1.0
45.24,306.4833,1.0,1.0,1.0
45.28,270.4833,1.0,1.0,1.0
45.32,266.0222,1.0,1.0,1.0
45.36,214.5167,1.0,1.0,1.0
45.4,182.4944,1.0,1.0,1.0
45.44,129.0,1.0,1.0,1.0
45.48,109.9889,1.0,1.0,1.0
45.52,78.0,1.0,1.0,1.0
45.56,114.5056,1.0,1.0,1.0
45.6,116.0,1.0,1.0,1.0
45.64,201.0,1.0,1.0,1.0
45.68,308.0,1.0,1.0,1.0
45.72,429.0222,1.0,1.0,1.0
45.76,621.0222,1.0,1.0,1.0
45.8,856.4833,1.0,1.0,1.0
45.84,1259.51,1.0,1.0,1.0
45.88,1391.52,1.0,1.0,1.0
45.92,1670.04,1.0,1.0,1.0
45.96,1919.91,1.0,1.0,1.0
46.0,2195.98,1.0,1.0,1.0
46.04,2410.49,1.0,1.0,1.0
46.08,2416.39,1.0,1.0,1.0
46.12,2477.02,1.0,1.0,1.0
46.16,2523.98,1.0,1.0,1.0
46.2,2367.06,1.0,1.0,1.0
46.24,2217.88,1.0,1.0,1.0
46.28,2161.46,1.0,1.0,1.0
46.32,2645.06,1.0,1.0,1.0
46.36,7600.67,1.0,1.0,1.0
46.4,79237.4,1.0,1.0,1.0
46.44,505219,1.0,1.0,1.0
46.48,2366741.0,1.0,1.0,1.0
46.52,23210682.0,1.0,1.0,1.0
46.56,474803.625,1.0,1.0,1.0
46.6,99147.25,1.0,1.0,1.0
46.64,53124.7,1.0,1.0,1.0
46.68,37647.4,1.0,1.0,1.0
46.72,29707.873,1.0,1.0,1.0
46.76,24665.5,1.0,1.0,1.0
46.8,21466.6,1.0,1.0,1.0
46.84,18952.2,1.0,1.0,1.0
46.88,16477.5,1.0,1.0,1.0
46.92,14666.4,1.0,1.0,1.0
46.96,12878.8,1.0,1.0,1.0
47.0,11192.3,1.0,1.0,1.0
47.04,9501.11,1.0,1.0,1.0
47.08,7967.94,1.0,1.0,1.0
47.12,6580.69,1.0,1.0,1.0
47.16,5146.06,1.0,1.0,1.0
47.2,4039.94,1.0,1.0,1.0
47.24,3044.94,1.0,1.0,1.0
47.28,2162.47,1.0,1.0,1.0
47.32,1408.98,1.0,1.0,1.0
47.36,931.4944,1.0,1.0,1.0
47.4,543.0111,1.0,1.0,1.0
47.44,299.9778,1.0,1.0,1.0
47.48,145.4944,1.0,1.0,1.0
47.52,126.4944,1.0,1.0,1.0
47.56,162.0,1.0,1.0,1.0
47.6,233.5056,1.0,1.0,1.0
47.64,356.0111,1.0,1.0,1.0
47.68,457.5167,1.0,1.0,1.0
47.72,497.0222,1.0,1.0,1.0
47.76,598.4278,1.0,1.0,1.0
47.8,668.4944,1.0,1.0,1.0
47.84,670.0555,1.0,1.0,1.0
47.88,637.5056,1.0,1.0,1.0
47.92,594.0222,1.0,1.0,1.0
47.96,458.0444,1.0,1.0,1.0
48.0,430.0,1.0,1.0,1.0
48.04,303.0111,1.0,1.0,1.0
48.08,235.5278,1.0,1.0,1.0
48.12,154.9778,1.0,1.0,1.0
48.16,117.0111,1.0,1.0,1.0
48.2,55.5278,1.0,1.0,1.0
48.24,42.9889,1.0,1.0,1.0
48.28,26.4944,1.0,1.0,1.0
48.32,39.5056,1.0,1.0,1.0
48.36,51.4944,1.0,1.0,1.0
48.4,92.9889,1.0,1.0,1.0
48.44,101.0,1.0,1.0,1.0
48.48,127.4944,1.0,1.0,1.0
48.52,147.0,1.0,1.0,1.0
48.56,147.4944,1.0,1.0,1.0
48.6,171.0,1.0,1.0,1.0
48.64,140.9778,1.0,1.0,1.0
48.68,125.5167,1.0,1.0,1.0
48.72,96.0,1.0,1.0,1.0
48.76,92.0,1.0,1.0,1.0
48.8,59.5056,1.0,1.0,1.0
48.84,47.5056,1.0,1.0,1.0
48.88,46.5056,1.0,1.0,1.0
48.92,14.0,1.0,1.0,1.0
48.96,29.0,1.0,1.0,1.0
49.0,21.0,1.0,1.0,1.0
49.04,30.0,1.0,1.0,1.0
49.08,35.5056,1.0,1.0,1.0
49.12,45.5167,1.0,1.0,1.0
49.16,20.5056,1.0,1.0,1.0
49.2,59.4944,1.0,1.0,1.0
49.24,22.9889,1.0,1.0,1.0
49.28,50.0,1.0,1.0,1.0
49.32,52.4944,1.0,1.0,1.0
49.36,47.5056,1.0,1.0,1.0
49.4,49.4944,1.0,1.0,1.0
49.44,41.0,1.0,1.0,1.0
49.48,15.5056,1.0,1.0,1.0
49.52,22.0,1.0,1.0,1.0
49.56,19.0,1.0,1.0,1.0
49.6,19.0,1.0,1.0,1.0
49.64,14.0,1.0,1.0,1.0
49.68,9.4944,1.0,1.0,1.0
49.72,6.0,1.0,1.0,1.0
49.76,8.0,1.0,1.0,1.0
49.8,8.5056,1.0,1.0,1.0
49.84,20.0,1.0,1.0,1.0
49.88,26.0,1.0,1.0,1.0
49.92,25.0111,1.0,1.0,1.0
49.96,22.4944,1.0,1.0,1.0
50.0,21.0,1.0,1.0,1.0
50.04,9.5056,1.0,1.0,1.0
50.08,27.9889,1.0,1.0,1.0
50.12,12.0,1.0,1.0,1.0
50.16,26.4944,1.0,1.0,1.0
50.2,11.0,1.0,1.0,1.0
50.24,7.5056,1.0,1.0,1.0
50.28,15.0,1.0,1.0,1.0
50.32,13.4944,1.0,1.0,1.0
50.36,5.0,1.0,1.0,1.0
50.4,3.0,1.0,1.0,1.0
50.44,11.0,1.0,1.0,1.0
50.48,5.0,1.0,1.0,1.0
50.52,4.0,1.0,1.0,1.0
50.56,11.5056,1.0,1.0,1.0
50.6,12.0,1.0,1.0,1.0
50.64,10.0,1.0,1.0,1.0
50.68,4.0,1.0,1.0,1.0
50.72,13.0,1.0,1.0,1.0
50.76,4.0,1.0,1.0,1.0
50.8,4.0,1.0,1.0,1.0
50.84,14.0,1.0,1.0,1.0
50.88,11.4944,1.0,1.0,1.0
50.92,2.0,1.0,1.0,1.0
50.96,12.0,1.0,1.0,1.0
51.0,7.0,1.0,1.0,1.0
51.04,12.0,1.0,1.0,1.0
51.08,5.4944,1.0,1.0,1.0
51.12,3.0,1.0,1.0,1.0
51.16,7.0,1.0,1.0,1.0
51.2,10.0,1.0,1.0,1.0
51.24,12.0,1.0,1.0,1.0
51.28,7.4944,1.0,1.0,1.0
51.32,7.9778,1.0,1.0,1.0
51.36,7.0,1.0,1.0,1.0
51.4,6.0,1.0,1.0,1.0
51.44,15.5056,1.0,1.0,1.0
51.48,7.5056,1.0,1.0,1.0
51.52,6.4944,1.0,1.0,1.0
51.56,5.4944,1.0,1.0,1.0
51.6,0.0,1.0,1.0,1.0
51.64,8.0,1.0,1.0,1.0
51.68,2.0,1.0,1.0,1.0
51.72,8.0,1.0,1.0,1.0
51.76,9.4944,1.0,1.0,1.0
51.8,3.0,1.0,1.0,1.0
51.84,2.0,1.0,1.0,1.0
51.88,7.0,1.0,1.0,1.0
51.92,8.5056,1.0,1.0,1.0
51.96,6.0,1.0,1.0,1.0
52.0,0.0,1.0,1.0,1.0

File: 22157b_LCOT_XRD_2-Theta_Omega.asc
*TYPE		=  Raw
*CLASS		=  ASCII CLASS
*SAMPLE		=
*COMMENT	=
*FNAME		=  22157b_LCOT_XRD_2-Theta_Omega.asc
*DATE		=  08-Nov-22 17:19

*GROUP_COUNT	=  1
*GONIO		=  SmartLab(In-plane), 0.000000
*ATTACHMENT	=  Z-Phi Stage
*ASC		=  0, 0, 0.000000, 0.000000
*I_MONOCHRO	=  Ge(220)x2, 0.000000
*FILTER		=  None
*C_MONOCHRO	=  None, 0.000000
*SLIT_NAME	=  0, Incident slit
*SLIT_NAME	=  1, Receiving slit # 1
*SLIT_NAME	=  2, Receiving slit # 2
*COUNTER	=  D/teX Ultra 250, 0
*POS_FORMAT	=  0
*SCAN_AXIS	=  2Theta/Omega
*MEAS_MODE	=  Continuous Scanning
*TARGET		=  29
*XRAY_CHAR	=  K-ALPHA1
*WAVE_LENGTH1	=  1.54059
*WAVE_LENGTH2	=  1.54441
*THICKNESS	=  0, 0.000000
*MU		=  0, 0.000000
*SCAN_MODE	=  2Theta/Omega
*SPEED_DIM	=  sec./step
*XUNIT		=  deg.
*YUNIT		=  counts
*SCALE_MODE	=  1
*REP_COUNT	=  0
*SE_COUNT	=  0
*STD_MATERIAL	=  Unknown, Unknown, 0.000000, 0.000000, 0.000000, 0.000000, 0.000000, 0.000000
*LATT_CONS	=  0, Unknown, Unknown, 0.000000, 0.000000, 0.000000, 0.000000, 0.000000, 0.000000
*SEC_COUNT	=  1
*TSPEC_SIZE	=  0
*EXTRA_SIZE	=  0
*MEMO		=

*BEGIN
*GROUP		=  0
*START		=  42
*STOP		=  52
*STEP		=  0.01
*OFFSET		=  0.1044
*SPEED		=  23.9588
*SLIT_SPEC	=  0, 0.400mm, 0.4, 0.000000
*SLIT_SPEC	=  1, 0.400mm, 0.4, 0.000000
*SLIT_SPEC	=  2, 0.400mm, 0.4, 0.000000
*KV		=  40
*MA		=  30
*LOW		=  0.000000
*HIGH		=  0.000000
*CTEMPER	=  0, 0.000000
*CTEMPER	=  1, 0.000000
*CTEMPER	=  2, 0.000000
*PAREX		=  0, 0.000000
*PAREX		=  1, 0.000000
*PAREX		=  2, 0.000000
*PAREX		=  3, 0.000000
*PAREX		=  4, 0.000000
*PAREX		=  5, 0.000000
*PAREX		=  6, 0.000000
*PAREX		=  7, 0.000000
*PAREX		=  8, 0.000000
*PAREX		=  9, 0.000000
*PAREX		=  10, 0.000000
*PAREX		=  11, 0.000000
*PAREX		=  12, 0.000000
*PAREX		=  13, 0.000000
*PAREX		=  14, 0.000000
*PAREX		=  15, 0.000000
*FULL_SCALE	=  2496035.5
*INDEX		=  0, 0, 0
*COUNT		=  1001
6, 4, 3, 3
9, 6, 9, 4
10, 0.000000, 9, 10
5.49445, 8, 8.50555, 9
5, 15, 11, 3
12, 13.4944, 16.5056, 15.4944
15.5056, 22, 8, 9.49445
4.50555, 9, 21, 6.98889
14.0111, 12.4944, 13.5056, 30
16, 28.4944, 16.5056, 15.4944
20.5056, 7, 6, 23
15.4944, 23.5056, 13.4944, 32.4944
26.5056, 12.5056, 22, 15
14.4944, 17.5056, 14.4944, 10
12.5056, 16, 15, 12
11, 5, 5, 13
14.4944, 11.5056, 17, 12.4944
8.50555, 7, 5, 5
9, 16, 3, 14
16.4944, 11.5056, 13, 7
11.4944, 8.50555, 5, 17.4944
6.50555, 7, 13, 13
25, 10.9889, 19.0111, 24
17, 16, 13, 15
26, 15, 37, 28.4944
32.5056, 19.4944, 23.5056, 24
30, 28.4944, 23, 39.4944
35, 47.5056, 24.5056, 32.4944
33, 35, 28.5056, 39.4833
24.5167, 29, 37.4944, 43.5056
36, 33, 31, 24
24, 33, 30.4944, 26.5056
21.4944, 30.5056, 29, 25.4944
19.5056, 15, 9, 14
10, 14, 8, 7
7.49445, 12.5056, 10, 10
16, 12, 15, 10
10, 23.4944, 12.5056, 13
9, 17, 11, 16
26.9889, 13.5056, 13.5056, 20.9889
25.0111, 23, 29.4944, 41.4944
34.5056, 25, 38.4944, 62.5056
43.5056, 65, 51.9889, 34.0111
40, 56, 41, 55.4944
51, 42.5056, 53.4944, 62.9889
45.0111, 43.4944, 63.0111, 41.4944
80.9778, 61.5167, 54.5056, 55.5056
49.4944, 31, 38.5056, 25.4944
58.5056, 35, 54.9889, 54
42.0111, 31.9889, 26.4944, 36.5167
26, 26, 33, 25.4944
19, 17.5056, 17, 22
5, 20, 25, 26
10, 16, 20, 20
23, 21, 10, 23.4944
22, 29, 32, 33
33.4944, 41.0111, 36, 39.9778
49.0222, 50.9889, 61, 54.5056
43.5056, 79.9889, 60.5056, 50.4944
86.9889, 68.5056, 95.4944, 69.5167
80, 95.5056, 86.4944, 102.989
124.506, 100, 124.989, 130.517
104, 109.483, 115, 131.517
123.483, 118.506, 132.506, 95.4944
108.494, 142, 104.494, 117.517
110.494, 87.4944, 102.011, 120
103, 83.5056, 75, 81.9889
80.0111, 71.4944, 86, 60.5056
60, 54, 47, 41.5056
47.4944, 52.5056, 34.4944, 48.9889
15.5167, 25, 28, 26.4944
26.5056, 35, 19, 29.4944
28.9889, 36, 21.5167, 32.4944
38, 46.5056, 59, 61
65, 76.4944, 89.4833, 85
109.022, 101.483, 113.011, 108.483
130.506, 126.517, 140.978, 174
153.011, 166.989, 246.989, 164.022
194.978, 220, 244.033, 221.483
219.989, 228.022, 255.472, 223
273, 258.517, 261.989, 280
306.483, 293.011, 267, 248
270.483, 266.539, 268.483, 222.494
266.022, 235.483, 257.989, 201.011
214.517, 220.483, 199.517, 195
182.494, 201.472, 138.539, 156
129, 131, 108, 88
109.989, 99.0111, 84, 77.5056
78, 62.9889, 89, 72.5056
114.506, 84.9778, 105.483, 107.022
116, 165.506, 159.506, 190.978
201, 221.011, 272.494, 257.494
308, 323.517, 373.967, 377.483
429.022, 469.506, 583.989, 617.472
621.022, 745.472, 754.506, 794.472
856.483, 1005.48, 974.056, 1063.42
1259.51, 1199.08, 1264.9, 1368.54
1391.52, 1457.44, 1535.02, 1586.94
1670.04, 1814.46, 1836.04, 1893.97
1919.91, 2108.57, 2058.53, 2115.45
2195.98, 2112.52, 2190.01, 2307.97
2410.49, 2318.55, 2373.39, 2452.09
2416.39, 2400.12, 2417.46, 2525.47
2477.02, 2518.48, 2604.51, 2504.51
2523.98, 2431.55, 2375.48, 2358
2367.06, 2321.49, 2262.46, 2189.56
2217.88, 2193.12, 2170.97, 2175.02
2161.46, 2165.98, 2298.48, 2343.45
2645.06, 2986.41, 3834.94, 5275.29
7600.67, 12343.2, 21831.5, 42857.6
79237.4, 132337, 203165, 314036
505219, 818579, 1353428.9, 1947150.4
2366741, 3774583.8, 14588482, 11606416
23210682, 35778048, 4834167.5, 1066847.4
474804, 278348, 190487, 135107
99147.3, 79287.3, 67885.6, 58985
53124.7, 47822.4, 43860, 40088.8
37647.4, 34952.5, 32997.7, 31558.6
29707.9, 28562.8, 27204.5, 26047.2
24665.5, 23954.7, 23064.7, 22363.9
21466.6, 20681.1, 19913.3, 19521.3
18952.2, 18336.4, 17615.2, 17174.2
16477.5, 15960.6, 15636.9, 15104.7
14666.4, 13964.6, 13763.1, 13040.5
12878.8, 12219.9, 11840.1, 11407.6
11192.3, 10832.2, 10267.2, 9711.48
9501.11, 9154.97, 8757.54, 8386.12
7967.94, 7555.09, 7233.43, 6895.02
6580.69, 6140.42, 5824.55, 5511.06
5146.06, 4910.51, 4501.59, 4423.58
4039.94, 3845.58, 3560.06, 3228.49
3044.94, 2775.02, 2515.54, 2363.06
2162.47, 1942.1, 1755.01, 1625
1408.98, 1270.54, 1181.99, 1092.03
931.494, 857.494, 678.528, 578.539
543.011, 424.494, 386.506, 373.506
299.978, 238.044, 192.494, 183.517
145.494, 146.989, 113.517, 92
126.494, 103.483, 133.506, 118.506
162, 224.506, 192.989, 225.989
233.506, 261.517, 260.989, 299.483
356.011, 308.506, 379.978, 460.483
457.517, 521.494, 493.011, 553.978
497.022, 536, 562.989, 626.011
598.428, 582.033, 591.956, 607.067
668.494, 709.472, 645.022, 650.483
670.056, 693.417, 601.572, 637.956
637.506, 625.033, 609.494, 552.978
594.022, 543.494, 552, 453.989
458.044, 444.989, 499.506, 456.967
430, 362.022, 387.022, 317.483
303.011, 296.989, 267.517, 276.483
235.528, 224.494, 192.989, 188.517
154.978, 152.528, 123.483, 125.494
117.011, 74.9889, 62.0111, 63.4833
55.5278, 40.9778, 42.0222, 41
42.9889, 50.0111, 39.9889, 46.0111
26.4944, 30.4944, 29, 38.5056
39.5056, 47.4944, 46.5056, 69
51.4944, 66.9889, 62.5167, 76.4944
92.9889, 84.5056, 102, 112.011
101, 106.989, 126.483, 131.528
127.494, 133.989, 138.506, 117.494
147, 163.494, 181.506, 137.494
147.494, 130.011, 161.506, 151
171, 155.483, 142.528, 159
140.978, 131.011, 127.494, 151
125.517, 132.978, 112.517, 115.989
96, 122, 114.506, 98.0111
92, 69.4944, 89, 63
59.5056, 45, 50, 49.9889
47.5056, 32.4944, 37, 37.5056
46.5056, 26.4944, 16.5056, 16
14, 19, 10, 22
29, 15, 26.4944, 28.5056
21, 24.4944, 34.4944, 21.0111
30, 23, 38, 29.4944
35.5056, 24, 16, 41.4833
45.5167, 37, 22, 47.4944
20.5056, 34, 44.4944, 63
59.4944, 40.5056, 56, 47.5056
22.9889, 54.5056, 52, 46.5056
50, 54, 37, 63.4944
52.4944, 69.9889, 49.0222, 48.9889
47.5056, 37.5056, 50.4944, 32.5056
49.4944, 44.4833, 32.5167, 30.4944
41, 44, 25.0111, 30.4944
15.5056, 29, 31.4944, 30.5056
22, 35.4944, 24.5056, 23.4944
19, 20.5056, 14.9889, 12.0111
19, 10, 14, 12
14, 9, 14.4944, 5.50555
9.49445, 13.5056, 5, 9
6, 14, 17, 11
8, 14, 15, 22.4944
8.50555, 16, 11, 17
20, 27, 32, 26
26, 15, 32, 20.9889
25.0111, 15, 24, 13
22.4944, 25.5056, 24.4944, 30.5056
21, 21, 22, 18.4944
9.50555, 29.4944, 18.5056, 23
27.9889, 31.5056, 13.5056, 23
12, 16, 17, 7
26.4944, 21, 11.5056, 12
11, 12, 20, 10.4944
7.50555, 6, 17, 3
15, 5, 8, 7
13.4944, 11.5056, 30.4944, 9.50555
5, 9, 16, 7
3, 5.98889, 14.0111, 6
11, 8, 9, 8
5, 10, 14.4944, 14.5056
4, 14, 13, 11.4944
11.5056, 18, 13.4944, 13.5056
12, 8, 10, 14
10, 8, 12, 13
4, 9, 6, 11
13, 14, 18, 16
4, 13, 9.49445, 19.5056
4, 10, 3, 7
14, 9, 10, 13
11.4944, 7.50555, 6, 2
2, 20, 9, 4
12, 3, 9, 7
7, 7.49445, 7.50555, 8
12, 15, 4, 5
5.49445, 11.5056, 4, 4
3, 7, 4, 5
7, 9, 3, 2
10, 10, 2, 15
12, 4, 8, 12
7.49445, 7.50555, 9, 5
7.97778, 9.02222, 5, 6
7, 7, 8, 3
6, 8, 3, 6.49445
15.5056, 0.000000, 0.000000, 3.49445
7.50555, 8, 8.49445, 10.5056
6.49445, 1.50555, 4, 6
5.49445, 7.50555, 11.4944, 10.5056
0.000000, 0.000000, 7, 12
8, 7, 9, 2
2, 9.49445, 4, 4.50555
8, 9, 0.000000, 1
9.49445, 7.50555, 3, 7
3, 6, 2, 6
2, 0.494446, 3.50555, 5
7, 3, 7, 12.4944
8.50555, 6, 8.49445, 3.50555
6, 17.4944, 10.5056, 0.000000
0.000000
*END

*EOF

File: 22157b_LCOT_XRR_2-Theta_Omega.asc
*TYPE		=  Raw
*CLASS		=  ASCII CLASS
*SAMPLE		=
*COMMENT	=
*FNAME		=  22157b_LCOT_XRR_2-Theta_Omega.asc
*DATE		=  08-Nov-22 18:14

*GROUP_COUNT	=  1
*GONIO		=  SmartLab(In-plane), 0.000000
*ATTACHMENT	=  Z-Phi Stage
*ASC		=  0, 0, 0.000000, 0.000000
*I_MONOCHRO	=  Ge(220)x2, 0.000000
*FILTER		=  None
*C_MONOCHRO	=  None, 0.000000
*SLIT_NAME	=  0, Incident slit
*SLIT_NAME	=  1, Receiving slit # 1
*SLIT_NAME	=  2, Receiving slit # 2
*COUNTER	=  D/teX Ultra 250, 0
*POS_FORMAT	=  0
*SCAN_AXIS	=  2Theta/Omega
*MEAS_MODE	=  Continuous Scanning
*TARGET		=  29
*XRAY_CHAR	=  K-ALPHA1
*WAVE_LENGTH1	=  1.54059
*WAVE_LENGTH2	=  1.54441
*THICKNESS	=  0, 0.000000
*MU		=  0, 0.000000
*SCAN_MODE	=  2Theta/Omega
*SPEED_DIM	=  sec./step
*XUNIT		=  deg.
*YUNIT		=  counts
*SCALE_MODE	=  1
*REP_COUNT	=  0
*SE_COUNT	=  0
*STD_MATERIAL	=  Unknown, Unknown, 0.000000, 0.000000, 0.000000, 0.000000, 0.000000, 0.000000
*LATT_CONS	=  0, Unknown, Unknown, 0.000000, 0.000000, 0.000000, 0.000000, 0.000000, 0.000000
*SEC_COUNT	=  1
*TSPEC_SIZE	=  0
*EXTRA_SIZE	=  0
*MEMO		=

*BEGIN
*GROUP		=  0
*START		=  0.4
*STOP		=  4.5
*STEP		=  0.01
*OFFSET		=  -0.009900
*SPEED		=  5.95853
*SLIT_SPEC	=  0, 1.000mm, 1, 0.000000
*SLIT_SPEC	=  1, 1.000mm, 1, 0.000000
*SLIT_SPEC	=  2, 1.000mm, 1, 0.000000
*KV		=  40
*MA		=  30
*LOW		=  0.000000
*HIGH		=  0.000000
*CTEMPER	=  0, 0.000000
*CTEMPER	=  1, 0.000000
*CTEMPER	=  2, 0.000000
*PAREX		=  0, 0.000000
*PAREX		=  1, 0.000000
*PAREX		=  2, 0.000000
*PAREX		=  3, 0.000000
*PAREX		=  4, 0.000000
*PAREX		=  5, 0.000000
*PAREX		=  6, 0.000000
*PAREX		=  7, 0.000000
*PAREX		=  8, 0.000000
*PAREX		=  9, 0.000000
*PAREX		=  10, 0.000000
*PAREX		=  11, 0.000000
*PAREX		=  12, 0.000000
*PAREX		=  13, 0.000000
*PAREX		=  14, 0.000000
*PAREX		=  15, 0.000000
*FULL_SCALE	=  169512
*INDEX		=  0, 0, 0
*COUNT		=  411
618790, 633518, 650955, 662172
680400, 690717, 705688, 718241
730855, 743085, 755802, 768444
777718, 786251, 793573, 802911
809913, 813891, 818118, 821254
822108, 820925, 819285, 814874
806268, 797295, 784017, 767472
748090, 719883, 690889, 660812
631326, 601552, 569443, 537114
506853, 474085, 441807, 409534
378905, 348005, 317492, 288219
261362, 233611, 208868, 186160
164301, 145447, 127642, 111507
97551, 85497.5, 75259, 65774
58245.5, 51751.5, 46717, 42110.5
38840, 36276.5, 34346.5, 33159
31420.5, 30841, 30615.5, 30396.5
30071, 30418.5, 30644.5, 30381
30855, 30647, 30459.5, 30372
30124.5, 29173, 28895.5, 28657.5
27747, 27177, 26139.5, 25124.5
24270.5, 23540.5, 21902.5, 20972
19832.5, 19100, 17608, 16410
15552, 14227.5, 13414.5, 12102
11275, 10733.5, 9566, 8745
7874.5, 7412.5, 6685, 6069
5762, 5349.5, 4805, 4522.5
4263, 4021.5, 3931.5, 3770
3760.5, 3662, 3655, 3582.5
3511, 3685, 3870.5, 3747
3864, 4026, 4088, 4271.5
4246.5, 4376.5, 4416.5, 4412.5
4618.5, 4387, 4438.5, 4652
4550, 4437.5, 4426.5, 4299.5
4278.5, 4230, 4125, 4014.5
3887, 3820.5, 3555, 3396.5
3280, 3164, 2985, 2908.5
2662.5, 2544.5, 2334.5, 2196
2111.5, 1920.5, 1739, 1738
1563, 1459, 1395, 1268
1152.5, 1101, 1011.5, 1015
912.501, 832, 841.501, 826.999
771, 789.5, 680, 760.5
788, 766, 752, 795.5
795, 872, 917.5, 933.5
951, 938.5, 986.5, 936
1018.5, 1018.5, 1093.5, 1109
1105.5, 1153.5, 1191, 1135
1159.5, 1123.5, 1153.5, 1108
1153.5, 1072.5, 1016.5, 1015
989.5, 1012.5, 1023.5, 996.5
922, 875, 832, 780.5
781.5, 720, 775.5, 661.001
626, 564.5, 535, 479
498, 483.5, 457.5, 406.5
397.5, 407, 338, 342
352.5, 329.5, 331, 262.5
278, 290, 281, 314
278.5, 294.5, 329.5, 327
294, 330, 354, 344
347.5, 354.5, 401.5, 332.5
432, 400.5, 402, 417.5
430.5, 408, 461.5, 429
466.5, 407, 436.5, 422.5
479, 421, 433.5, 425
447.5, 448, 442.5, 375
390, 364.5, 387, 339
358, 307, 329, 289
309, 246.5, 279, 285.5
259.5, 250, 224, 197.5
197, 173.5, 172.5, 216
171.5, 166.5, 190.5, 186
191.5, 173, 161.5, 178.5
209, 188, 185, 165.5
192, 190.5, 187.5, 190.5
196.5, 217.5, 250, 219.5
192, 209.5, 253, 209
245.5, 228.5, 226.5, 228
241, 209, 241.5, 275
223, 271.5, 213.5, 234.5
241, 257, 201, 217.5
223, 207.5, 205, 207.5
177.5, 178, 182.5, 153.5
151, 180.5, 135.5, 145
131.5, 164.5, 138.5, 119.5
138, 141.5, 122, 111.5
156.5, 124, 114.5, 122.5
128.5, 108.5, 132.5, 142.5
103, 108, 129, 122
151, 125.5, 113.5, 145.5
113, 136.5, 118.5, 109.5
133, 140, 118.5, 143.5
148, 159.5, 143, 139.5
129, 179, 155.5, 173
153, 115.5, 145.5, 143
127, 140, 108, 122
153, 155.5, 124.5, 111
115, 124.5, 112, 115
126, 134, 109.5, 126
109, 115, 121, 113
122, 81.5001, 68.5001, 102
82, 103.5, 99.4999, 95
95.4998, 90.0002, 101.5
*END

*EOF