Folder: Analysis/XRD:XRR/LCO/22163_LCOT (part 2)

File: 22163_103_RSM_2-Theta_Omega.asc
*TYPE		=  Raw
*CLASS		=
*SAMPLE		=
*COMMENT	=
*FNAME		=  22163_103_RSM_2-Theta_Omega.asc
*DATE		=  27-Nov-22 04:06

*GROUP_COUNT	=  1
*GONIO		=  SmartLab(In-plane), 0.000000
*ATTACHMENT	=  Z-Phi Stage
*ASC		=  0, 0, 0.000000, 0.000000
*I_MONOCHRO	=  Ge(220)x2, 0.000000
*FILTER		=  None
*C_MONOCHRO	=  None, 0.000000
*SLIT_NAME	=  0, Incident slit
*SLIT_NAME	=  1, Receiving slit # 1
*SLIT_NAME	=  2, Receiving slit # 2
*COUNTER	=  D/teX Ultra 250, 0
*POS_FORMAT	=  0
*SCAN_AXIS	=  2Theta/Omega
*MEAS_MODE	=  Continuous Scanning
*TARGET		=  29
*XRAY_CHAR	=  K-ALPHA1
*WAVE_LENGTH1	=  1.54059
*WAVE_LENGTH2	=  1.54441
*THICKNESS	=  0, 0.000000
*MU		=  0, 0.000000
*SCAN_MODE	=  2Theta/Omega
*SPEED_DIM	=  sec./step
*XUNIT		=  deg.
*YUNIT		=  counts
*SCALE_MODE	=  1
*REP_COUNT	=  0
*SE_COUNT	=  0
*STD_MATERIAL	=  Unknown, Unknown, 0.000000, 0.000000, 0.000000, 0.000000, 0.000000, 0.000000
*LATT_CONS	=  0, Unknown, Unknown, 0.000000, 0.000000, 0.000000, 0.000000, 0.000000, 0.000000
*SEC_COUNT	=  81
*TSPEC_SIZE	=  0
*EXTRA_SIZE	=  0
*MEMO		=

*BEGIN
*GROUP		=  0
*START		=  70
*STOP		=  85
*STEP		=  0.1
*OFFSET		=  16.3405
*SPEED		=  9.917
*SLIT_SPEC	=  0, 0.500mm, 0.5, 0.000000
*SLIT_SPEC	=  1, 0.500mm, 0.5, 0.000000
*SLIT_SPEC	=  2, 0.500mm, 0.5, 0.000000
*KV		=  40
*MA		=  30
*LOW		=  0.000000
*HIGH		=  0.000000
*CTEMPER	=  0, 0.000000
*CTEMPER	=  1, 0.000000
*CTEMPER	=  2, 0.000000
*PAREX		=  0, 0.000000
*PAREX		=  1, 0.000000
*PAREX		=  2, 0.000000
*PAREX		=  3, 0.000000
*PAREX		=  4, 0.000000
*PAREX		=  5, 0.000000
*PAREX		=  6, 0.000000
*PAREX		=  7, 0.000000
*PAREX		=  8, 0.000000
*PAREX		=  9, 0.000000
*PAREX		=  10, 0.000000
*PAREX		=  11, 0.000000
*PAREX		=  12, 0.000000
*PAREX		=  13, 0.000000
*PAREX		=  14, 0.000000
*PAREX		=  15, 0.000000
*FULL_SCALE	=  36.3013
*INDEX		=  0, 0, 0
*COUNT		=  151
2, 2, 4, 5
5, 2, 3, 0.000000
2, 2, 3, 0.000000
5, 1, 3, 9
3, 3, 3, 2
2, 0.000000, 2, 0.000000
0.000000, 2, 0.000000, 4
4, 0.000000, 2, 4
3, 2, 2, 0.000000
2, 2, 2, 2
4, 8, 2, 2
0.000000, 4, 3, 0.000000
2, 0.000000, 0.000000, 7
6, 8, 4, 0.000000
3, 7, 6, 4
5, 5, 6, 7
4, 6, 7, 6
4, 13, 8, 5
2, 9, 2, 4
14, 6, 2, 4.90033
6.09967, 2, 3, 2
0.000000, 2.90033, 2.09967, 9
4, 8, 5, 0.000000
9.90033, 11.0997, 8, 2
7, 8, 3, 5
0.000000, 7, 9, 5
0.000000, 2, 0.000000, 2
4, 5, 7, 4
2, 5, 4.90033, 2.09967
0.000000, 2, 3, 7
11, 0.000000, 0.000000, 2
2, 4, 10, 3
0.000000, 6, 7, 2
2, 6, 3, 8
4, 0.000000, 2, 2
0.000000, 2, 6, 1
4, 2, 5, 4
0.000000, 2, 0.000000
*END

*BEGIN
*GROUP		=  0
*START		=  70
*STOP		=  85
*STEP		=  0.1
*OFFSET		=  16.3906
*SPEED		=  9.917
*SLIT_SPEC	=  0, 0.500mm, 0.5, 0.000000
*SLIT_SPEC	=  1, 0.500mm, 0.5, 0.000000
*SLIT_SPEC	=  2, 0.500mm, 0.5, 0.000000
*KV		=  40
*MA		=  30
*LOW		=  0.000000
*HIGH		=  0.000000
*CTEMPER	=  0, 0.000000
*CTEMPER	=  1, 0.000000
*CTEMPER	=  2, 0.000000
*PAREX		=  0, 0.000000
*PAREX		=  1, 0.000000
*PAREX		=  2, 0.000000
*PAREX		=  3, 0.000000
*PAREX		=  4, 0.000000
*PAREX		=  5, 0.000000
*PAREX		=  6, 0.000000
*PAREX		=  7, 0.000000
*PAREX		=  8, 0.000000
*PAREX		=  9, 0.000000
*PAREX		=  10, 0.000000
*PAREX		=  11, 0.000000
*PAREX		=  12, 0.000000
*PAREX		=  13, 0.000000
*PAREX		=  14, 0.000000
*PAREX		=  15, 0.000000
*FULL_SCALE	=  36.3013
*INDEX		=  0, 0, 0
*COUNT		=  151
4.90033, 5, 3.09967, 0.000000
0.000000, 5, 5, 12
0.000000, 2, 2, 3
0.000000, 2, 0.000000, 2
2, 3, 0.000000, 0.000000
2, 2, 0.000000, 0.000000
2, 2, 0.000000, 2
2, 2, 0.000000, 5
6, 4, 1, 2
3, 7, 4, 0.000000
6, 4, 2, 5
7, 1, 13, 6
5, 0.000000, 12, 8
6, 2, 3, 4
2, 3, 6, 3
4, 4, 4, 3
2, 7, 10, 5
2, 5, 2, 7
3, 10, 4, 2
7, 3, 3, 0.000000
6, 8, 4, 2
6, 4, 0.000000, 8
7.80066, 1.19934, 9, 0.000000
0.000000, 1, 2, 6
9, 6, 4, 4
4, 9, 2, 2
6, 5, 6, 10
2, 0.000000, 0.000000, 7
3, 4, 6, 0.000000
0.000000, 4, 0.000000, 5
1, 0.000000, 2, 5
2, 5, 0.000000, 0.000000
0.000000, 2, 3, 2
0.000000, 0.000000, 0.000000, 6
0.000000, 4, 2, 6
2, 7, 2, 2
3, 4, 0.000000, 6
0.000000, 2, 2
*END

*BEGIN
*GROUP		=  0
*START		=  70
*STOP		=  85
*STEP		=  0.1
*OFFSET		=  16.4406
*SPEED		=  9.917
*SLIT_SPEC	=  0, 0.500mm, 0.5, 0.000000
*SLIT_SPEC	=  1, 0.500mm, 0.5, 0.000000
*SLIT_SPEC	=  2, 0.500mm, 0.5, 0.000000
*KV		=  40
*MA		=  30
*LOW		=  0.000000
*HIGH		=  0.000000
*CTEMPER	=  0, 0.000000
*CTEMPER	=  1, 0.000000
*CTEMPER	=  2, 0.000000
*PAREX		=  0, 0.000000
*PAREX		=  1, 0.000000
*PAREX		=  2, 0.000000
*PAREX		=  3, 0.000000
*PAREX		=  4, 0.000000
*PAREX		=  5, 0.000000
*PAREX		=  6, 0.000000
*PAREX		=  7, 0.000000
*PAREX		=  8, 0.000000
*PAREX		=  9, 0.000000
*PAREX		=  10, 0.000000
*PAREX		=  11, 0.000000
*PAREX		=  12, 0.000000
*PAREX		=  13, 0.000000
*PAREX		=  14, 0.000000
*PAREX		=  15, 0.000000
*FULL_SCALE	=  36.3013
*INDEX		=  0, 0, 0
*COUNT		=  151
0.000000, 0.000000, 0.000000, 2
4, 4, 2, 8
7, 5, 4, 3
3, 2, 5, 0.000000
7, 6, 4, 5
4, 4, 2, 5
0.000000, 0.000000, 9, 4
7, 0.000000, 0.000000, 0.000000
0.000000, 2, 4, 2
4, 2, 6, 0.000000
2, 0.000000, 2, 8
0.000000, 3, 4, 3
2, 6, 9.90033, 5.09967
9, 7, 6, 9
0.000000, 2, 0.000000, 2
4.90033, 8.09967, 2, 10
4, 4, 7, 4
7, 5, 8.90033, 6.09967
3, 4, 8, 6
2, 6, 2, 2
5, 11, 2, 6
5.90033, 8.09967, 3, 9
8, 7, 4.90033, 4.09967
2, 10, 4, 2
0.000000, 4, 0.000000, 7
2, 7, 10, 4
8, 2, 0.000000, 5
0.000000, 5, 2, 8
5, 2, 0.000000, 4
2, 2, 2, 0.000000
5, 0.000000, 2, 3
0.000000, 0.000000, 5, 2
0.000000, 7, 0.000000, 8
6, 5, 0.000000, 3
0.000000, 11, 0.000000, 4
2, 0.000000, 5, 1.90033
2.09967, 2, 0.000000, 0.000000
2, 0.000000, 2
*END

*BEGIN
*GROUP		=  0
*START		=  70
*STOP		=  85
*STEP		=  0.1
*OFFSET		=  16.4906
*SPEED		=  9.917
*SLIT_SPEC	=  0, 0.500mm, 0.5, 0.000000
*SLIT_SPEC	=  1, 0.500mm, 0.5, 0.000000
*SLIT_SPEC	=  2, 0.500mm, 0.5, 0.000000
*KV		=  40
*MA		=  30
*LOW		=  0.000000
*HIGH		=  0.000000
*CTEMPER	=  0, 0.000000
*CTEMPER	=  1, 0.000000
*CTEMPER	=  2, 0.000000
*PAREX		=  0, 0.000000
*PAREX		=  1, 0.000000
*PAREX		=  2, 0.000000
*PAREX		=  3, 0.000000
*PAREX		=  4, 0.000000
*PAREX		=  5, 0.000000
*PAREX		=  6, 0.000000
*PAREX		=  7, 0.000000
*PAREX		=  8, 0.000000
*PAREX		=  9, 0.000000
*PAREX		=  10, 0.000000
*PAREX		=  11, 0.000000
*PAREX		=  12, 0.000000
*PAREX		=  13, 0.000000
*PAREX		=  14, 0.000000
*PAREX		=  15, 0.000000
*FULL_SCALE	=  24.2009
*INDEX		=  0, 0, 0
*COUNT		=  151
0.000000, 2, 0.000000, 0.000000
0.000000, 0.000000, 2, 3
5, 2, 3, 3
2, 2, 2, 6
6, 4, 6, 0.000000
0.000000, 0.000000, 2, 2
0.000000, 2, 4, 2
0.000000, 0.000000, 4, 0.000000
2, 2, 5, 0.000000
2, 6, 0.000000, 4
7, 2, 3, 2
2, 4, 3, 6
4, 0.000000, 2, 8
4, 2, 7, 15
2, 7, 10, 8
0.000000, 2, 2, 5
0.000000, 4, 8, 5
8, 12.9003, 2.09967, 5
5, 0.000000, 8, 7
4, 11, 0.000000, 12
1, 4, 8, 0.000000
3.90033, 2.09967, 6, 5
3, 5, 6, 2
0.000000, 0.000000, 4, 5
2.90033, 11.0997, 2, 4
2, 2, 3, 5
4, 0.000000, 5, 4
11, 0.000000, 5.90033, 5.09967
4.90033, 2.09967, 3, 6
4, 3, 0.000000, 2
5, 0.000000, 6, 2
0.000000, 0.000000, 2, 9
0.000000, 5, 2, 0.000000
6, 0.000000, 4, 2
0.000000, 0.000000, 7, 0.000000
0.000000, 2, 2, 2
0.000000, 0.000000, 2, 0.000000
5, 0.000000, 2
*END

*BEGIN
*GROUP		=  0
*START		=  70
*STOP		=  85
*STEP		=  0.1
*OFFSET		=  16.5405
*SPEED		=  9.917
*SLIT_SPEC	=  0, 0.500mm, 0.5, 0.000000
*SLIT_SPEC	=  1, 0.500mm, 0.5, 0.000000
*SLIT_SPEC	=  2, 0.500mm, 0.5, 0.000000
*KV		=  40
*MA		=  30
*LOW		=  0.000000
*HIGH		=  0.000000
*CTEMPER	=  0, 0.000000
*CTEMPER	=  1, 0.000000
*CTEMPER	=  2, 0.000000
[...]
2, 11, 7, 0.000000
0.000000, 2, 10, 5
6, 4, 0.000000, 6
4, 7, 8, 3
0.000000, 2, 0.000000, 3
4, 5, 2, 4
2, 6, 11, 5
5, 5, 0.000000, 2.90033
8, 0.0996704, 8, 10
2, 5, 0.000000, 0.000000
8, 0.000000, 4, 6
8, 0.000000, 3, 6
9, 6.90033, 4, 8
2.09967, 0.000000, 0.000000, 9
4, 2, 6, 2
5, 0.000000, 0.000000, 0.000000
2, 2, 6, 3
0.000000, 2, 2, 2
6, 0.000000, 3, 0.000000
2, 0.000000, 3, 6
8, 0.000000, 2, 2
2, 0.000000, 4, 0.000000
2, 0.000000, 0.000000, 3
4, 4, 2, 8
0.000000, 0.000000, 0.000000
*END

*BEGIN
*GROUP		=  0
*START		=  70
*STOP		=  85
*STEP		=  0.1
*OFFSET		=  20.2905
*SPEED		=  9.917
*SLIT_SPEC	=  0, 0.500mm, 0.5, 0.000000
*SLIT_SPEC	=  1, 0.500mm, 0.5, 0.000000
*SLIT_SPEC	=  2, 0.500mm, 0.5, 0.000000
*KV		=  40
*MA		=  30
*LOW		=  0.000000
*HIGH		=  0.000000
*CTEMPER	=  0, 0.000000
*CTEMPER	=  1, 0.000000
*CTEMPER	=  2, 0.000000
*PAREX		=  0, 0.000000
*PAREX		=  1, 0.000000
*PAREX		=  2, 0.000000
*PAREX		=  3, 0.000000
*PAREX		=  4, 0.000000
*PAREX		=  5, 0.000000
*PAREX		=  6, 0.000000
*PAREX		=  7, 0.000000
*PAREX		=  8, 0.000000
*PAREX		=  9, 0.000000
*PAREX		=  10, 0.000000
*PAREX		=  11, 0.000000
*PAREX		=  12, 0.000000
*PAREX		=  13, 0.000000
*PAREX		=  14, 0.000000
*PAREX		=  15, 0.000000
*FULL_SCALE	=  36.3013
*INDEX		=  0, 0, 0
*COUNT		=  151
3.19934, 2, 2, 2
3, 0.000000, 2, 0.000000
0.000000, 0.000000, 0.000000, 0.000000
3, 0.000000, 0.000000, 3
2, 0.000000, 0.000000, 2
0.000000, 2, 2, 2
2, 0.000000, 4, 4
2, 0.000000, 4, 3
0.000000, 0.000000, 0.000000, 4
2, 2, 5, 7
3, 2, 4, 2
2, 0.000000, 0.000000, 5
2, 3, 2, 4
4, 4, 11, 6
4, 0.000000, 2, 0.90033
6, 4.09967, 3, 11
2, 3, 0.000000, 2
2, 6, 6, 2
6, 3.80066, 1.19934, 5
8, 0.000000, 0.000000, 7
4, 7, 5, 5
0.000000, 7, 5, 4
4, 0.000000, 4, 6
8, 3, 0.000000, 0.000000
5, 3, 6, 0.000000
3, 4, 0.000000, 4
4, 0.000000, 4, 4
8, 4, 6, 4
11, 4, 6, 0.000000
2, 2, 0.000000, 3
4, 2, 0.000000, 5
0.000000, 6, 2, 3
0.000000, 0.000000, 4, 2
0.000000, 2, 4, 0.000000
0.000000, 0.000000, 0.000000, 2
0.000000, 2, 2, 0.000000
4, 0.000000, 2, 6
6, 6, 0.000000
*END

*BEGIN
*GROUP		=  0
*START		=  70
*STOP		=  85
*STEP		=  0.1
*OFFSET		=  20.3405
*SPEED		=  9.917
*SLIT_SPEC	=  0, 0.500mm, 0.5, 0.000000
*SLIT_SPEC	=  1, 0.500mm, 0.5, 0.000000
*SLIT_SPEC	=  2, 0.500mm, 0.5, 0.000000
*KV		=  40
*MA		=  30
*LOW		=  0.000000
*HIGH		=  0.000000
*CTEMPER	=  0, 0.000000
*CTEMPER	=  1, 0.000000
*CTEMPER	=  2, 0.000000
*PAREX		=  0, 0.000000
*PAREX		=  1, 0.000000
*PAREX		=  2, 0.000000
*PAREX		=  3, 0.000000
*PAREX		=  4, 0.000000
*PAREX		=  5, 0.000000
*PAREX		=  6, 0.000000
*PAREX		=  7, 0.000000
*PAREX		=  8, 0.000000
*PAREX		=  9, 0.000000
*PAREX		=  10, 0.000000
*PAREX		=  11, 0.000000
*PAREX		=  12, 0.000000
*PAREX		=  13, 0.000000
*PAREX		=  14, 0.000000
*PAREX		=  15, 0.000000
*FULL_SCALE	=  24.2009
*INDEX		=  0, 0, 0
*COUNT		=  151
5, 2, 0.000000, 2
0.000000, 2, 0.000000, 2
8, 3, 0.000000, 0.000000
0.000000, 6, 2, 2
0.000000, 2, 0.000000, 2
0.000000, 2, 0.000000, 0.000000
3, 0.000000, 4, 2
0.000000, 2, 0.000000, 2
2.90033, 3.09967, 7, 2
6, 0.000000, 4, 0.000000
2, 2, 0.000000, 0.000000
5, 0.000000, 0.000000, 2
2.90033, 0.0996704, 2, 2
2.90033, 3.09967, 0.000000, 2
3, 0.000000, 0.000000, 8
0.000000, 4, 6, 2
0.000000, 8, 2, 8
0.000000, 2, 6, 0.000000
4, 5, 6, 2
3, 2, 5, 4
3.90033, 1.09967, 9, 0.000000
2, 9, 0.000000, 6
0.000000, 0.000000, 6, 9
3, 5, 0.000000, 2
2, 7, 0.000000, 0.000000
6, 0.000000, 0.000000, 0.000000
2, 5, 3, 3
0.000000, 2, 2, 0.000000
0.000000, 0.000000, 2, 2
2, 2, 0.000000, 2
4, 2, 0.000000, 5
0.000000, 4, 4, 0.000000
2, 2, 2, 0.000000
2, 2, 3, 2
0.000000, 2, 2, 0.000000
7, 4, 2, 0.000000
3, 2, 0.000000, 4
0.000000, 2, 0.000000
*END

*EOF