Folder: Analysis/XRD:XRR/LCO/22165_SL(CO)L

File: 22165_SL(CO)L_002_XRD_2-Theta_Omega.asc
*TYPE		=  Raw
*CLASS		=  ASCII CLASS
*SAMPLE		=
*COMMENT	=
*FNAME		=  22165_SL(CO)L_002_XRD_2-Theta_Omega.asc
*DATE		=  30-Nov-22 16:40

*GROUP_COUNT	=  1
*GONIO		=  SmartLab(In-plane), 0.000000
*ATTACHMENT	=  Z-Phi Stage
*ASC		=  0, 0, 0.000000, 0.000000
*I_MONOCHRO	=  Ge(220)x2, 0.000000
*FILTER		=  None
*C_MONOCHRO	=  None, 0.000000
*SLIT_NAME	=  0, Incident slit
*SLIT_NAME	=  1, Receiving slit # 1
*SLIT_NAME	=  2, Receiving slit # 2
*COUNTER	=  D/teX Ultra 250, 0
*POS_FORMAT	=  0
*SCAN_AXIS	=  2Theta/Omega
*MEAS_MODE	=  Continuous Scanning
*TARGET		=  29
*XRAY_CHAR	=  K-ALPHA1
*WAVE_LENGTH1	=  1.54059
*WAVE_LENGTH2	=  1.54441
*THICKNESS	=  0, 0.000000
*MU		=  0, 0.000000
*SCAN_MODE	=  2Theta/Omega
*SPEED_DIM	=  sec./step
*XUNIT		=  deg.
*YUNIT		=  counts
*SCALE_MODE	=  1
*REP_COUNT	=  0
*SE_COUNT	=  0
*STD_MATERIAL	=  Unknown, Unknown, 0.000000, 0.000000, 0.000000, 0.000000, 0.000000, 0.000000
*LATT_CONS	=  0, Unknown, Unknown, 0.000000, 0.000000, 0.000000, 0.000000, 0.000000, 0.000000
*SEC_COUNT	=  1
*TSPEC_SIZE	=  0
*EXTRA_SIZE	=  0
*MEMO		=

*BEGIN
*GROUP		=  0
*START		=  42
*STOP		=  50
*STEP		=  0.01
*OFFSET		=  0.0277
*SPEED		=  23.0353
*SLIT_SPEC	=  0, 0.400mm, 0.4, 0.000000
*SLIT_SPEC	=  1, 0.400mm, 0.4, 0.000000
*SLIT_SPEC	=  2, 0.400mm, 0.4, 0.000000
*KV		=  40
*MA		=  30
*LOW		=  0.000000
*HIGH		=  0.000000
*CTEMPER	=  0, 0.000000
*CTEMPER	=  1, 0.000000
*CTEMPER	=  2, 0.000000
*PAREX		=  0, 0.000000
*PAREX		=  1, 0.000000
*PAREX		=  2, 0.000000
*PAREX		=  3, 0.000000
*PAREX		=  4, 0.000000
*PAREX		=  5, 0.000000
*PAREX		=  6, 0.000000
*PAREX		=  7, 0.000000
*PAREX		=  8, 0.000000
*PAREX		=  9, 0.000000
*PAREX		=  10, 0.000000
*PAREX		=  11, 0.000000
*PAREX		=  12, 0.000000
*PAREX		=  13, 0.000000
*PAREX		=  14, 0.000000
*PAREX		=  15, 0.000000
*FULL_SCALE	=  911235
*INDEX		=  0, 0, 0
*COUNT		=  801
5, 0.000000, 13, 9
11, 11, 9, 13.4944
14.5056, 7, 16, 11
7, 7, 4, 4
12, 4, 11, 18
10, 7, 13, 8
9, 4, 9, 8.49445
17.5056, 7.98889, 15.0111, 15.4944
7.50555, 8, 11, 13.4944
8.50555, 14.4944, 2.50555, 4
5.49445, 8.50555, 8, 4
24, 7, 14, 5
5, 12, 15, 5
6, 18, 24.4944, 12
7.50555, 4, 14, 12.4944
12.5056, 14, 8, 7
9, 5, 6, 12
6, 6, 4, 8
7, 7, 6, 5
11, 10, 8.49445, 13.5056
6, 6, 2, 5
13.4944, 24.5056, 8, 11
8, 9, 5, 8
15, 14, 10, 8
4, 11, 19, 3
14, 10, 68, 13
26, 5.49445, 6, 11.5056
13, 19.4944, 11.5056, 115
12, 18, 21.4944, 16.5056
5, 12, 8, 9.49445
13, 13.5056, 5, 25
12, 7, 23, 11.4944
12.5056, 16, 14, 13
19, 11.4944, 17.5056, 13
6, 19.4944, 19.5056, 13
8, 10, 11, 2
11.4833, 6.51666, 14, 8
12, 11, 20.9889, 13.0111
5.49445, 14.5056, 12.9889, 24.0111
13, 17, 12, 13
23.4944, 13.5056, 14, 10
14, 32, 22.4944, 11.5056
18.4944, 26, 16, 28.5056
25, 33, 15.4944, 32.5056
34.4944, 32.5056, 32.9889, 25.5056
28.5056, 38, 33, 44.4944
34.5056, 28, 47, 31
44, 33, 26, 44
30, 22, 18, 40.4944
38.5056, 30.9778, 46.5167, 44.5056
48.9889, 58.0111, 44.4944, 47
42, 43.5056, 46.4944, 68.4944
55.0111, 47, 38.4833, 49.5056
64, 55.5056, 57.5056, 52.4944
35.5056, 79.4944, 61.5056, 55.4833
58.0111, 49.4944, 42.0111, 52.9778
69.0222, 84.9889, 64, 63.0111
77.4944, 74, 64.4944, 104.506
55.5056, 57.4944, 70.4944, 86.4944
57.5167, 78.4944, 81.4833, 69.5056
85.5056, 104.989, 103.506, 76.5167
82.9889, 101, 70.4944, 72.0111
92.4833, 105.517, 99.5056, 80.4833
88, 90.5056, 89.5056, 82.9889
80.5056, 59, 112.506, 114.989
68.5167, 79.9889, 59, 78.0111
84, 67.9889, 78.5056, 65
85.5056, 47, 65.9889, 80.0111
81, 84.4833, 84.4944, 81.5167
83.4944, 108.011, 87, 99.9889
116, 119.989, 107.011, 123
111, 113.506, 126.494, 122
171.472, 169.494, 173.033, 162.011
175.472, 216.506, 162, 213.494
228.483, 222, 220.528, 251
254.978, 250.517, 305.011, 292.483
319, 329.472, 357.506, 344.494
331.506, 368.517, 356.011, 376.967
378.022, 400.989, 413.494, 381.517
418.022, 423.956, 469.033, 437.461
423.517, 497.472, 480.022, 437.978
444.517, 479.506, 450.483, 444.022
439.506, 365.989, 402.517, 381.461
370, 329.044, 319.483, 261.022
273.989, 293.483, 257.506, 217.506
237.506, 209.022, 228.989, 200.989
230.517, 215.483, 211.022, 212.483
242.483, 247.494, 200.517, 240.022
290.494, 250.472, 265.517, 298.506
276.506, 294.989, 304.011, 287.967
290.022, 259.472, 334.022, 345.472
330.528, 364.461, 366.033, 386.033
437.967, 492.483, 506.483, 556.022
573.472, 596.494, 679.461, 741.572
794.483, 799.967, 848.989, 917.483
978.539, 1005.99, 1047, 1127.98
1178.49, 1234.46, 1316.49, 1381.49
1410.04, 1393.48, 1538.97, 1639.03
1698.51, 1804.49, 1806.86, 1826.13
1906.46, 2004.49, 1998.59, 1998.43
2052, 2012.92, 2062.06, 1806.02
1849.97, 1777.99, 1609.06, 1555.51
1621.48, 1451.56, 1400.9, 1264.1
1234.99, 1111.96, 1115.54, 1048.54
1002.51, 1005.52, 966.483, 995.033
879.472, 940.494, 866, 937.978
1001.99, 975.989, 922, 958.517
902.011, 970.494, 858.067, 965.944
858.044, 881.472, 864.539, 793.461
796.528, 812.472, 794.517, 789.989
775.978, 810.539, 817.956, 877.033
913.461, 966.956, 1033.56, 1094.99
1235.98, 1235.46, 1379.51, 1454.46
1572.46, 1648.06, 1771.98, 1992.03
2113.45, 2279.97, 2375.94, 2722.91
2950.56, 3137.97, 3297.59, 3543.81
3875.14, 4220.83, 4369.88, 4752.02
5053.55, 5344, 5434.92, 5781.96
6070.46, 6277.99, 6310.43, 6373.08
6701.07, 6509.48, 6520.55, 6469.33
6341.56, 6287.02, 6109.11, 5927.42
5718.08, 5548.93, 5398.57, 5271.96
5038.55, 4867.06, 4800.43, 4591.1
4581, 4602.97, 4604.51, 4590.52
4496.01, 4478.52, 4590.44, 4566.04
4613.88, 4733.02, 4816.02, 4709.07
4740, 4663.49, 4760.49, 4541.03
4567.91, 4354.16, 4250.06, 4093.89
3999.03, 3885.57, 3781.44, 3468.1
3472.48, 3176.49, 3088.54, 2944.04
2846.9, 2744.07, 2653.09, 2413.93
2408.99, 2444.51, 2285.57, 2251.91
2254.11, 2135.44, 2241.46, 2149.55
2166.02, 2114.98, 2153.46, 2281.52
2257.07, 2256.45, 2365.43, 2461.63
2492.42, 2743.96, 2804.46, 3089.01
3044.06, 3403.38, 3485.09, 3552.97
3784.46, 3807.93, 3816.06, 3865.39
3859.61, 3886.02, 3853.97, 3900.54
3551, 3344.53, 3079, 3040.56
2893, 2627.54, 2482.97, 2283.54
2139.51, 2042.96, 1912.62, 1921.47
1865.01, 1922.46, 1957.48, 1988.51
2224.02, 2433.46, 2580.48, 2811.45
3228.94, 3546.37, 4099.03, 4480.92
5192, 5975.84, 6928.43, 8571.36
10214.1, 12901.7, 16147.6, 20583.5
26174.2, 33373.7, 43047, 57112
75471, 102980, 145814, 223709
372569, 847902, 4613893.5, 11554312
14926206, 8529491, 6884256, 5315156.5
3549172.8, 2233413.5, 1071516.5, 240084
87653.4, 48948.6, 31665.9, 22395.6
16902.6, 13691.4, 11339.7, 9988
8882.23, 8224.06, 7428.52, 7024.53
6578.61, 6131.91, 5662.13, 5460.65
5166.92, 4429.57, 4137.52, 3733.06
3367.53, 3048.61, 2681.03, 2357.03
2134, 1883.04, 1646.97, 1563.07
1381.51, 1284.47, 1141.07, 1043.97
911.528, 991, 920.989, 910.539
865.494, 777.461, 712.494, 739.539
695, 663.517, 543.011, 560.989
502.967, 451.528, 407.528, 387.978
318.506, 381, 357.978, 349.528
284.517, 321.011, 298.978, 290.011
286.472, 292.011, 273.517, 280.506
258.978, 263.022, 239.989, 255.011
223, 215.978, 220.022, 240.011
223.989, 223.494, 225.494, 214.011
198.483, 207.022, 210.494, 174.506
185.494, 198.494, 149.517, 144.989
161.483, 131.022, 119, 105.506
126.483, 103.011, 105.517, 112.978
62.5167, 84.9889, 93, 82.0111
85, 77.4944, 84.5056, 112.989
67.0111, 53.5056, 61.4944, 63
46.9889, 61.5167, 41.9889, 39.5056
37, 51.4944, 34.0111, 57.9889
44.0111, 30.4944, 42.9889, 31.0111
42.5056, 24.4944, 41, 33.5056
44.9889, 41, 25.0111, 27.4944
32, 29.5056, 25, 25.4944
21, 16.5056, 19.4944, 52.5056
34, 23, 38, 36.4944
36, 29.5056, 34, 39
22.9889, 33.0111, 41.9889, 28.0111
25, 31.4944, 52.9889, 28.5167
48, 30, 31, 48
35, 42, 35, 38.4944
52.5056, 20.4833, 32.5056, 37.0111
27.9889, 40.0111, 33, 24.4944
28.5056, 21, 29, 18.9889
17.5056, 24.5056, 33, 12
20, 12, 23, 17
4.49445, 29.5056, 21, 29
26, 18.9889, 17, 20.0111
24, 11, 21, 9
5, 13, 18, 18
28.4944, 12, 12, 10.5056
7.49445
*END

*EOF