Folder: Analysis/XRD:XRR/LCO/22168_LCOT

File: 22168_LCOT_002_XRD.csv
#twotheta, yobs, ycal, bkg, diff
42.0,37.4944,1.0,1.0,1.0
42.04,48.5056,1.0,1.0,1.0
42.08,39.4944,1.0,1.0,1.0
42.12,45.4944,1.0,1.0,1.0
42.16,35.4944,1.0,1.0,1.0
42.2,58.0,1.0,1.0,1.0
42.24,61.0111,1.0,1.0,1.0
42.28,41.4944,1.0,1.0,1.0
42.32,50.0,1.0,1.0,1.0
42.36,48.0,1.0,1.0,1.0
42.4,54.0,1.0,1.0,1.0
42.44,32.0,1.0,1.0,1.0
42.48,56.0,1.0,1.0,1.0
42.52,45.0111,1.0,1.0,1.0
42.56,53.4944,1.0,1.0,1.0
42.6,56.9889,1.0,1.0,1.0
42.64,68.0,1.0,1.0,1.0
42.68,54.4944,1.0,1.0,1.0
42.72,54.9889,1.0,1.0,1.0
42.76,65.9889,1.0,1.0,1.0
42.8,72.5056,1.0,1.0,1.0
42.84,58.4944,1.0,1.0,1.0
42.88,77.9778,1.0,1.0,1.0
42.92,76.0111,1.0,1.0,1.0
42.96,60.5056,1.0,1.0,1.0
43.0,70.5056,1.0,1.0,1.0
43.04,77.0,1.0,1.0,1.0
43.08,58.0111,1.0,1.0,1.0
43.12,59.0,1.0,1.0,1.0
43.16,59.5056,1.0,1.0,1.0
43.2,65.0111,1.0,1.0,1.0
43.24,91.5056,1.0,1.0,1.0
43.28,111.5056,1.0,1.0,1.0
43.32,87.5056,1.0,1.0,1.0
43.36,81.4944,1.0,1.0,1.0
43.4,67.0111,1.0,1.0,1.0
43.44,61.9889,1.0,1.0,1.0
43.48,57.5167,1.0,1.0,1.0
43.52,78.5056,1.0,1.0,1.0
43.56,94.4833,1.0,1.0,1.0
43.6,119.5056,1.0,1.0,1.0
43.64,143.0111,1.0,1.0,1.0
43.68,101.4833,1.0,1.0,1.0
43.72,88.5056,1.0,1.0,1.0
43.76,64.0,1.0,1.0,1.0
43.8,90.0222,1.0,1.0,1.0
43.84,80.5056,1.0,1.0,1.0
43.88,113.0111,1.0,1.0,1.0
43.92,181.0222,1.0,1.0,1.0
43.96,192.0222,1.0,1.0,1.0
44.0,163.0111,1.0,1.0,1.0
44.04,132.5167,1.0,1.0,1.0
44.08,113.0,1.0,1.0,1.0
44.12,89.0,1.0,1.0,1.0
44.16,104.0111,1.0,1.0,1.0
44.2,155.9778,1.0,1.0,1.0
44.24,198.9778,1.0,1.0,1.0
44.28,256.4722,1.0,1.0,1.0
44.32,240.55,1.0,1.0,1.0
44.36,171.9889,1.0,1.0,1.0
44.4,98.4944,1.0,1.0,1.0
44.44,80.0,1.0,1.0,1.0
44.48,92.4833,1.0,1.0,1.0
44.52,174.4944,1.0,1.0,1.0
44.56,225.0,1.0,1.0,1.0
44.6,310.0111,1.0,1.0,1.0
44.64,293.5167,1.0,1.0,1.0
44.68,279.9889,1.0,1.0,1.0
44.72,171.4833,1.0,1.0,1.0
44.76,106.4944,1.0,1.0,1.0
44.8,124.0,1.0,1.0,1.0
44.84,224.0,1.0,1.0,1.0
44.88,314.0,1.0,1.0,1.0
44.92,415.9778,1.0,1.0,1.0
44.96,390.5278,1.0,1.0,1.0
45.0,378.0222,1.0,1.0,1.0
45.04,262.4944,1.0,1.0,1.0
45.08,160.9778,1.0,1.0,1.0
45.12,189.4833,1.0,1.0,1.0
45.16,297.4833,1.0,1.0,1.0
45.2,562.4944,1.0,1.0,1.0
45.24,851.4944,1.0,1.0,1.0
45.28,885.4944,1.0,1.0,1.0
45.32,829.9667,1.0,1.0,1.0
45.36,534.55,1.0,1.0,1.0
45.4,277.5389,1.0,1.0,1.0
45.44,243.4944,1.0,1.0,1.0
45.48,341.4722,1.0,1.0,1.0
45.52,779.4944,1.0,1.0,1.0
45.56,1426.03,1.0,1.0,1.0
45.6,1813.03,1.0,1.0,1.0
45.64,1920.04,1.0,1.0,1.0
45.68,1696.1,1.0,1.0,1.0
45.72,1076.58,1.0,1.0,1.0
45.76,510.5167,1.0,1.0,1.0
45.8,300.4722,1.0,1.0,1.0
45.84,685.4611,1.0,1.0,1.0
45.88,1727.91,1.0,1.0,1.0
45.92,2862.08,1.0,1.0,1.0
45.96,3690.54,1.0,1.0,1.0
46.0,3890.54,1.0,1.0,1.0
46.04,3257.561,1.0,1.0,1.0
46.08,2083.45,1.0,1.0,1.0
46.12,1105.49,1.0,1.0,1.0
46.16,1171.41,1.0,1.0,1.0
46.2,2826.84,1.0,1.0,1.0
46.24,6630.37,1.0,1.0,1.0
46.28,12288.7,1.0,1.0,1.0
46.32,22226.7,1.0,1.0,1.0
46.36,84734.6,1.0,1.0,1.0
46.4,220740,1.0,1.0,1.0
46.44,650498,1.0,1.0,1.0
46.48,55496560.0,1.0,1.0,1.0
46.52,3447292.0,1.0,1.0,1.0
46.56,624617,1.0,1.0,1.0
46.6,349569.25,1.0,1.0,1.0
46.64,245234,1.0,1.0,1.0
46.68,196698,1.0,1.0,1.0
46.72,160026,1.0,1.0,1.0
46.76,125803,1.0,1.0,1.0
46.8,93112.6,1.0,1.0,1.0
46.84,63318.9,1.0,1.0,1.0
46.88,38311.6,1.0,1.0,1.0
46.92,19985.2,1.0,1.0,1.0
46.96,8690.78,1.0,1.0,1.0
47.0,3595.16,1.0,1.0,1.0
47.04,2831.46,1.0,1.0,1.0
47.08,4321.48,1.0,1.0,1.0
47.12,6004.94,1.0,1.0,1.0
47.16,6734.97,1.0,1.0,1.0
47.2,6315.14,1.0,1.0,1.0
47.24,4689.65,1.0,1.0,1.0
47.28,2818.49,1.0,1.0,1.0
47.32,1411.54,1.0,1.0,1.0
47.36,784.0111,1.0,1.0,1.0
47.4,1078.98,1.0,1.0,1.0
47.44,1820.42,1.0,1.0,1.0
47.48,2523.41,1.0,1.0,1.0
47.52,2976.59,1.0,1.0,1.0
47.56,2624.02,1.0,1.0,1.0
47.6,2152.59,1.0,1.0,1.0
47.64,1385.0,1.0,1.0,1.0
47.68,720.0555,1.0,1.0,1.0
47.72,418.0111,1.0,1.0,1.0
47.76,524.0,1.0,1.0,1.0
47.8,748.9778,1.0,1.0,1.0
47.84,1062.97,1.0,1.0,1.0
47.88,1199.96,1.0,1.0,1.0
47.92,1077.48,1.0,1.0,1.0
47.96,877.5278,1.0,1.0,1.0
48.0,580.9889,1.0,1.0,1.0
48.04,354.5167,1.0,1.0,1.0
48.08,221.0111,1.0,1.0,1.0
48.12,265.0333,1.0,1.0,1.0
48.16,389.4944,1.0,1.0,1.0
48.2,463.9778,1.0,1.0,1.0
48.24,488.0333,1.0,1.0,1.0
48.28,444.4944,1.0,1.0,1.0
48.32,319.4722,1.0,1.0,1.0
48.36,206.4722,1.0,1.0,1.0
48.4,181.0333,1.0,1.0,1.0
48.44,137.4833,1.0,1.0,1.0
48.48,135.5056,1.0,1.0,1.0
48.52,234.4944,1.0,1.0,1.0
48.56,248.4722,1.0,1.0,1.0
48.6,215.4944,1.0,1.0,1.0
48.64,188.0,1.0,1.0,1.0
48.68,180.4833,1.0,1.0,1.0
48.72,101.5056,1.0,1.0,1.0
48.76,91.5167,1.0,1.0,1.0
48.8,117.0111,1.0,1.0,1.0
48.84,138.0,1.0,1.0,1.0
48.88,148.4944,1.0,1.0,1.0
48.92,166.9889,1.0,1.0,1.0
48.96,137.0111,1.0,1.0,1.0
49.0,128.5167,1.0,1.0,1.0
49.04,101.4833,1.0,1.0,1.0
49.08,64.5056,1.0,1.0,1.0
49.12,101.5167,1.0,1.0,1.0
49.16,88.0,1.0,1.0,1.0
49.2,108.0,1.0,1.0,1.0
49.24,92.0,1.0,1.0,1.0
49.28,77.0111,1.0,1.0,1.0
49.32,72.4944,1.0,1.0,1.0
49.36,97.4944,1.0,1.0,1.0
49.4,85.0,1.0,1.0,1.0
49.44,70.4944,1.0,1.0,1.0
49.48,62.0111,1.0,1.0,1.0
49.52,85.0,1.0,1.0,1.0
49.56,67.4944,1.0,1.0,1.0
49.6,68.9889,1.0,1.0,1.0
49.64,85.0,1.0,1.0,1.0
49.68,67.5167,1.0,1.0,1.0
49.72,61.4944,1.0,1.0,1.0
49.76,41.5056,1.0,1.0,1.0
49.8,36.0111,1.0,1.0,1.0
49.84,45.4944,1.0,1.0,1.0
49.88,49.0111,1.0,1.0,1.0
49.92,62.0,1.0,1.0,1.0
49.96,38.9889,1.0,1.0,1.0
50.0,45.0,1.0,1.0,1.0
50.04,61.9889,1.0,1.0,1.0
50.08,52.0,1.0,1.0,1.0
50.12,25.4944,1.0,1.0,1.0
50.16,39.5056,1.0,1.0,1.0
50.2,45.0222,1.0,1.0,1.0
50.24,47.5056,1.0,1.0,1.0
50.28,44.0,1.0,1.0,1.0
50.32,34.5056,1.0,1.0,1.0
50.36,34.5056,1.0,1.0,1.0
50.4,39.5056,1.0,1.0,1.0
50.44,47.0111,1.0,1.0,1.0
50.48,38.5167,1.0,1.0,1.0
50.52,33.0,1.0,1.0,1.0
50.56,21.0,1.0,1.0,1.0
50.6,21.4944,1.0,1.0,1.0
50.64,26.0,1.0,1.0,1.0
50.68,38.0,1.0,1.0,1.0
50.72,30.0,1.0,1.0,1.0
50.76,31.5056,1.0,1.0,1.0
50.8,39.9889,1.0,1.0,1.0
50.84,17.5056,1.0,1.0,1.0
50.88,24.0,1.0,1.0,1.0
50.92,31.4944,1.0,1.0,1.0
50.96,35.0111,1.0,1.0,1.0
51.0,28.0,1.0,1.0,1.0
51.04,31.9889,1.0,1.0,1.0
51.08,32.9889,1.0,1.0,1.0
51.12,28.0,1.0,1.0,1.0
51.16,23.0,1.0,1.0,1.0
51.2,24.4944,1.0,1.0,1.0
51.24,19.0,1.0,1.0,1.0
51.28,29.0,1.0,1.0,1.0
51.32,38.0,1.0,1.0,1.0
51.36,8.4944,1.0,1.0,1.0
51.4,31.0,1.0,1.0,1.0
51.44,22.9778,1.0,1.0,1.0
51.48,18.4944,1.0,1.0,1.0
51.52,30.5056,1.0,1.0,1.0
51.56,35.5056,1.0,1.0,1.0
51.6,30.0,1.0,1.0,1.0
51.64,18.0,1.0,1.0,1.0
51.68,34.0,1.0,1.0,1.0
51.72,25.0,1.0,1.0,1.0
51.76,11.0,1.0,1.0,1.0
51.8,24.0,1.0,1.0,1.0
51.84,30.9889,1.0,1.0,1.0
51.88,14.0111,1.0,1.0,1.0
51.92,21.9889,1.0,1.0,1.0
51.96,28.0,1.0,1.0,1.0
52.0,17.0,1.0,1.0,1.0

File: 22168_LCOT_002_XRD_2-Theta_Omega.asc
*TYPE		=  Raw
*CLASS		=  ASCII CLASS
*SAMPLE		=
*COMMENT	=
*FNAME		=  22168_SL(CO)L_002_XRD_2-Theta_Omega.asc
*DATE		=  15-Dec-22 17:27

*GROUP_COUNT	=  1
*GONIO		=  SmartLab(In-plane), 0.000000
*ATTACHMENT	=  Z-Phi Stage
*ASC		=  0, 0, 0.000000, 0.000000
*I_MONOCHRO	=  Ge(220)x2, 0.000000
*FILTER		=  None
*C_MONOCHRO	=  None, 0.000000
*SLIT_NAME	=  0, Incident slit
*SLIT_NAME	=  1, Receiving slit # 1
*SLIT_NAME	=  2, Receiving slit # 2
*COUNTER	=  D/teX Ultra 250, 0
*POS_FORMAT	=  0
*SCAN_AXIS	=  2Theta/Omega
*MEAS_MODE	=  Continuous Scanning
*TARGET		=  29
*XRAY_CHAR	=  K-ALPHA1
*WAVE_LENGTH1	=  1.54059
*WAVE_LENGTH2	=  1.54441
*THICKNESS	=  0, 0.000000
*MU		=  0, 0.000000
*SCAN_MODE	=  2Theta/Omega
*SPEED_DIM	=  sec./step
*XUNIT		=  deg.
*YUNIT		=  counts
*SCALE_MODE	=  1
*REP_COUNT	=  0
*SE_COUNT	=  0
*STD_MATERIAL	=  Unknown, Unknown, 0.000000, 0.000000, 0.000000, 0.000000, 0.000000, 0.000000
*LATT_CONS	=  0, Unknown, Unknown, 0.000000, 0.000000, 0.000000, 0.000000, 0.000000, 0.000000
*SEC_COUNT	=  1
*TSPEC_SIZE	=  0
*EXTRA_SIZE	=  0
*MEMO		=

*BEGIN
*GROUP		=  0
*START		=  42
*STOP		=  52
*STEP		=  0.01
*OFFSET		=  0.0715
*SPEED		=  23.9588
*SLIT_SPEC	=  0, 0.600mm, 0.6, 0.000000
*SLIT_SPEC	=  1, 0.600mm, 0.6, 0.000000
*SLIT_SPEC	=  2, 0.600mm, 0.6, 0.000000
*KV		=  40
*MA		=  30
*LOW		=  0.000000
*HIGH		=  0.000000
*CTEMPER	=  0, 0.000000
*CTEMPER	=  1, 0.000000
*CTEMPER	=  2, 0.000000
*PAREX		=  0, 0.000000
*PAREX		=  1, 0.000000
*PAREX		=  2, 0.000000
*PAREX		=  3, 0.000000
*PAREX		=  4, 0.000000
*PAREX		=  5, 0.000000
*PAREX		=  6, 0.000000
*PAREX		=  7, 0.000000
*PAREX		=  8, 0.000000
*PAREX		=  9, 0.000000
*PAREX		=  10, 0.000000
*PAREX		=  11, 0.000000
*PAREX		=  12, 0.000000
*PAREX		=  13, 0.000000
*PAREX		=  14, 0.000000
*PAREX		=  15, 0.000000
*FULL_SCALE	=  3918338
*INDEX		=  0, 0, 0
*COUNT		=  1001
37.4944, 38.5056, 40, 31.9889
48.5056, 37.5056, 32.4944, 39.5056
39.4944, 37.5056, 43.4944, 49.5056
45.4944, 50, 43.4944, 40.0111
35.4944, 32.9889, 48.5167, 46.4944
58, 64, 50, 46.9889
61.0111, 57, 44, 41.5056
41.4944, 47, 33.4944, 61
50, 61.5056, 49, 50
48, 58.5056, 36.4833, 51.5167
54, 59.4944, 41.5056, 62
32, 58.9889, 53.5056, 37.5056
56, 43.4944, 56.5056, 46.9778
45.0111, 51.5056, 42, 47.5056
53.4944, 50, 56, 60
56.9889, 74.5167, 61.4833, 63.0111
68, 63.4944, 48, 61
54.4944, 65.5167, 51, 62.4944
54.9889, 49.5167, 50, 34.4944
65.9889, 57.5167, 48, 61.4944
72.5056, 50.4944, 58, 70
58.4944, 56.5056, 65.4944, 76.0111
77.9778, 70.0222, 67, 50.9889
76.0111, 68.9889, 68, 80
60.5056, 72.9889, 90.5167, 63.4944
70.5056, 57.4833, 77.5167, 51.4944
77, 88, 55.9889, 63.5056
58.0111, 36, 56, 70.4833
59, 58.0111, 51, 73.4944
59.5056, 76, 79, 71.9889
65.0111, 66, 59.4944, 82.5056
91.5056, 79.4833, 86.4944, 86.5167
111.506, 102.494, 135.494, 80
87.5056, 88.4944, 91.5056, 66.9889
81.4944, 89, 76.0111, 62.4944
67.0111, 76.9889, 50.5167, 43.4944
61.9889, 79.0111, 70.4944, 64.9889
57.5167, 61.9889, 82.5167, 83.4944
78.5056, 61.4944, 104.494, 102.506
94.4833, 107.989, 121.022, 116
119.506, 111.494, 115.011, 122.989
143.011, 114.494, 133, 105.506
101.483, 107.494, 98.5167, 69.4944
88.5056, 90.5056, 102.989, 56.0111
64, 72, 57.4833, 100.494
90.0222, 62.9778, 97, 92.0111
80.5056, 90, 123.483, 128.011
113.011, 106.494, 143.967, 126.011
181.022, 139.989, 149, 194.483
192.022, 155.989, 154.011, 157.483
163.011, 157.011, 137, 132.483
132.517, 151, 124.494, 107.494
113, 95.5056, 89.4944, 93.5056
89, 104.506, 92.5056, 110.989
104.011, 115.978, 133, 134.517
155.978, 154.494, 180.011, 183.011
198.978, 197.506, 253, 204.528
256.472, 241.517, 217.506, 208.439
240.55, 192.483, 223.011, 188.011
171.989, 167.494, 138.506, 160.022
98.4944, 103, 123.494, 87.5056
80, 74.9889, 70.0111, 98.4944
92.4833, 116.011, 122.506, 154
174.494, 219.989, 232.989, 245.506
225, 276.494, 329.472, 279
310.011, 298, 317.033, 309.978
293.517, 283.989, 287.506, 303.989
279.989, 192.033, 213.506, 204.517
171.483, 160.494, 120.506, 108
106.494, 132.022, 113.483, 89.5056
124, 155, 129.472, 195.506
224, 257.494, 275.022, 269.956
314, 334, 399.517, 480.989
415.978, 483.517, 456.978, 504.528
390.528, 467.45, 435.022, 429
378.022, 332.989, 311.517, 237.011
262.494, 222.022, 181.989, 158.506
160.978, 151.011, 149.506, 170.494
189.483, 205.011, 243.494, 301.483
297.483, 388.044, 409.472, 476.472
562.494, 619.506, 704.978, 714.989
851.494, 856.033, 915, 889.967
885.494, 920.539, 880.472, 862.033
829.967, 742.033, 705.483, 633.011
534.55, 498.967, 432.033, 362.472
277.539, 238.494, 217.022, 182.483
243.494, 207, 230, 313
341.472, 527.494, 539.461, 670.011
779.494, 1002.46, 1127.51, 1237.98
1426.03, 1560.43, 1654.52, 1735.96
1813.03, 1982.47, 1934.94, 1973.02
1920.04, 1908.44, 1868.08, 1758.93
1696.1, 1590.48, 1349.99, 1288.01
1076.58, 873.494, 788.517, 629
510.517, 386.494, 382.483, 325.044
300.472, 417.472, 469.022, 633.506
685.461, 939.978, 1191.44, 1408.53
1727.91, 2013.03, 2304.89, 2448.49
2862.08, 3050.87, 3409.04, 3584.89
3690.54, 3819.52, 3827.37, 3923.07
3890.54, 3746.53, 3563.04, 3525.46
3257.56, 2902.49, 2693.52, 2394.09
2083.45, 1826.55, 1515.56, 1281.01
1105.49, 977.583, 917.978, 967.989
1171.41, 1351.56, 1708.42, 2235.99
2826.84, 3509.92, 4530.47, 5507.89
6630.37, 7844.73, 9227.45, 10826.3
12288.7, 14483.3, 16492.1, 19023.7
22226.7, 27334.9, 38817.9, 57439.5
84734.6, 119888, 151349, 182852
220740, 268922, 333909, 441221
650498, 1205464, 6455874.5, 29822790
55496560, 76647896, 63930576, 21694806
3447292, 1435271.1, 975902, 762865
624617, 521202, 447972, 392610
349569, 314298, 284077, 263274
245234, 232833, 220569, 208269
196698, 187911, 177842, 169666
160026, 151327, 142635, 134438
125803, 117887, 109756, 101393
93112.6, 84741, 77349.8, 69884.3
63318.9, 56597.8, 49637.9, 44032.1
38311.6, 32990, 28226.6, 24094.6
19985.2, 16741, 13459.9, 10959.5
8690.78, 6899.73, 5399.16, 4252.45
3595.16, 2985.09, 2654.53, 2641.96
2831.46, 3034.43, 3291.04, 3637.91
4321.48, 4749.46, 5100.98, 5648.33
6004.94, 6245.91, 6399.19, 6718.39
6734.97, 6713.14, 6722.83, 6629.59
6315.14, 5884.93, 5444.14, 5085.38
4689.65, 4236.54, 3677.57, 3333.03
2818.49, 2352.58, 1976.04, 1673.02
1411.54, 1144.48, 910.528, 830.044
784.011, 835.978, 823.494, 870.483
1078.98, 1258.99, 1384.97, 1544.06
1820.42, 2082.01, 2211.43, 2345.56
2523.41, 2611.99, 2724.44, 2780.02
2976.59, 3014.88, 2869.08, 2804.43
2624.02, 2519.61, 2469.06, 2211.89
2152.59, 1918.98, 1686.04, 1596.55
1385, 1160.04, 1038.52, 833.967
720.056, 621.956, 517.528, 500.011
418.011, 422.506, 434.517, 468.472
524, 556.506, 632.967, 704.539
748.978, 876.967, 918.967, 1001.01
1062.97, 1135.06, 1169.45, 1176.52
1199.96, 1200.51, 1185.07, 1121.48
1077.48, 1014.53, 1015.97, 906.056
877.528, 738.978, 683.011, 613.506
580.989, 463.539, 396.989, 392
354.517, 259.022, 278.483, 237.494
221.011, 196.506, 220.989, 273.989
265.033, 278.956, 369.506, 352.483
389.494, 370.55, 429.472, 419.506
463.978, 479.506, 490, 517.967
488.033, 467.011, 480.978, 487.011
444.494, 438.011, 351.517, 376.011
319.472, 272.506, 271.506, 279.528
206.472, 196.033, 189, 173.472
181.033, 122.978, 135.011, 152.494
137.483, 137.022, 131.989, 170.506
135.506, 192.494, 190.483, 222.011
234.494, 267.517, 245.011, 215.494
248.472, 252.494, 240.494, 278.528
215.494, 253.461, 209.528, 202.022
188, 163.978, 168.528, 149.506
180.483, 157, 126, 117.011
101.506, 92.4944, 112.483, 110.506
91.5167, 86, 81, 113.978
117.011, 109.989, 131.494, 120.011
138, 144.494, 197.494, 136.506
148.494, 186.506, 130.506, 144
166.989, 143.517, 140.483, 160.011
137.011, 149.494, 122.494, 142
128.517, 113, 87.9778, 106.517
101.483, 80.0111, 94.0111, 83.4833
64.5056, 98, 90.5056, 73.9889
101.517, 83, 82.4944, 103
88, 96.5056, 83.4944, 88.9889
108, 103.011, 148.989, 135.011
92, 116.989, 123.494, 114
77.0111, 113.494, 97.5167, 90.4833
72.4944, 98, 83.0222, 65
97.4944, 76.4944, 72.5056, 81.9889
85, 61.5056, 78.0111, 51
70.4944, 53, 39, 84.4944
62.0111, 60.4944, 65.5056, 67.9889
85, 49.4833, 75.5056, 80.0222
67.4944, 71, 79, 72.4944
68.9889, 91.5167, 76.4833, 53.5056
85, 69.5167, 70.9778, 48.5056
67.5167, 64.4833, 64.5167, 66.4944
61.4944, 47, 77.0111, 41.4944
41.5056, 43, 56.9889, 64
36.0111, 37.4944, 40, 46
45.4944, 42.5056, 59.4944, 66
49.0111, 53, 60.4833, 62.0111
62, 45, 62.4944, 61.0111
38.9889, 56.0111, 54.9889, 55.5056
45, 64, 79.5056, 47.4944
61.9889, 44.5167, 19.4944, 30.5056
52, 37, 29.9889, 32.5056
25.4944, 47, 33.5056, 47
39.5056, 43.9889, 43.5056, 41.4833
45.0222, 40, 25, 44.9889
47.5056, 50.4944, 36.5056, 43.5056
44, 46, 26.9889, 27.5056
34.5056, 33, 36, 46.4944
34.5056, 29, 45, 41.4944
39.5056, 45, 31.4833, 59.5056
47.0111, 40.4944, 57, 41.9889
38.5167, 37.4833, 30.5167, 20
33, 40, 28.4944, 39.5056
21, 38.4944, 18.5056, 35
21.4944, 32.5056, 29.9889, 20.0111
26, 43, 41, 40.4944
38, 35, 23.5056, 32.4944
30, 45.5056, 34, 36.4944
31.5056, 26.9889, 52.0111, 29.4944
39.9889, 35.5167, 21.9889, 41.5056
17.5056, 37, 34.4944, 24.5056
24, 28.9889, 40, 35.0111
31.4944, 39.5056, 28, 49.9889
35.0111, 27.9889, 31, 26.0111
28, 22, 37, 29.4944
31.9889, 21.5167, 39, 31
32.9889, 36.0111, 42, 28
28, 30, 24.4944, 23
23, 31.5056, 21.4944, 27.5056
24.4944, 37.5056, 28, 31
19, 28, 32.4944, 27.5056
29, 46, 16, 33
38, 22.9889, 35.5056, 32.5056
8.49445, 30, 25.5056, 26
31, 23.9889, 24, 24.0111
22.9778, 28.0222, 16, 12
18.4944, 19.5056, 32, 20.9889
30.5056, 41.5056, 11.4944, 28
35.5056, 18, 23, 29
30, 26.4944, 36.5056, 20
18, 45, 29, 22
34, 26, 17.4944, 13.5056
25, 17, 35.4833, 13.5167
11, 13, 15.4944, 18.5056
24, 38, 25.9889, 30.0111
30.9889, 22.5056, 27, 34.4944
14.0111, 19.4944, 17, 27.5056
21.9889, 29.0111, 23, 26.4944
28, 12.5056, 31.4944, 16
17
*END

*EOF