Folder: Analysis/XRD:XRR/LCO/22163_LCOT

File: 22163_002_XRD.csv
#twotheta, yobs, ycal, bkg, diff
42.0,8.4944,1.0,1.0,1.0
42.04,5.0,1.0,1.0,1.0
42.08,5.0,1.0,1.0,1.0
42.12,3.0,1.0,1.0,1.0
42.16,8.0,1.0,1.0,1.0
42.2,17.9889,1.0,1.0,1.0
42.24,3.4944,1.0,1.0,1.0
42.28,2.0,1.0,1.0,1.0
42.32,14.4944,1.0,1.0,1.0
42.36,16.0,1.0,1.0,1.0
42.4,15.0,1.0,1.0,1.0
42.44,37.0,1.0,1.0,1.0
42.48,30.9889,1.0,1.0,1.0
42.52,16.5056,1.0,1.0,1.0
42.56,10.0,1.0,1.0,1.0
42.6,20.0,1.0,1.0,1.0
42.64,28.4944,1.0,1.0,1.0
42.68,25.5056,1.0,1.0,1.0
42.72,14.5056,1.0,1.0,1.0
42.76,5.4944,1.0,1.0,1.0
42.8,12.0111,1.0,1.0,1.0
42.84,7.0,1.0,1.0,1.0
42.88,7.0,1.0,1.0,1.0
42.92,29.0,1.0,1.0,1.0
42.96,13.0,1.0,1.0,1.0
43.0,30.9889,1.0,1.0,1.0
43.04,37.4944,1.0,1.0,1.0
43.08,43.4944,1.0,1.0,1.0
43.12,40.0,1.0,1.0,1.0
43.16,45.0,1.0,1.0,1.0
43.2,35.0,1.0,1.0,1.0
43.24,39.5056,1.0,1.0,1.0
43.28,33.0,1.0,1.0,1.0
43.32,21.0,1.0,1.0,1.0
43.36,11.5056,1.0,1.0,1.0
43.4,6.0,1.0,1.0,1.0
43.44,23.0,1.0,1.0,1.0
43.48,13.5056,1.0,1.0,1.0
43.52,12.0,1.0,1.0,1.0
43.56,26.0,1.0,1.0,1.0
43.6,49.5056,1.0,1.0,1.0
43.64,47.0,1.0,1.0,1.0
43.68,64.0,1.0,1.0,1.0
43.72,71.4944,1.0,1.0,1.0
43.76,72.5056,1.0,1.0,1.0
43.8,88.0,1.0,1.0,1.0
43.84,88.5167,1.0,1.0,1.0
43.88,99.5056,1.0,1.0,1.0
43.92,68.0,1.0,1.0,1.0
43.96,54.9889,1.0,1.0,1.0
44.0,44.5056,1.0,1.0,1.0
44.04,23.5056,1.0,1.0,1.0
44.08,18.0,1.0,1.0,1.0
44.12,26.5056,1.0,1.0,1.0
44.16,16.0,1.0,1.0,1.0
44.2,21.0,1.0,1.0,1.0
44.24,53.5056,1.0,1.0,1.0
44.28,48.4944,1.0,1.0,1.0
44.32,102.9889,1.0,1.0,1.0
44.36,113.0111,1.0,1.0,1.0
44.4,163.5056,1.0,1.0,1.0
44.44,165.4944,1.0,1.0,1.0
44.48,165.5278,1.0,1.0,1.0
44.52,147.9889,1.0,1.0,1.0
44.56,140.5056,1.0,1.0,1.0
44.6,171.0222,1.0,1.0,1.0
44.64,116.4833,1.0,1.0,1.0
44.68,79.0,1.0,1.0,1.0
44.72,76.0,1.0,1.0,1.0
44.76,39.0111,1.0,1.0,1.0
44.8,31.0,1.0,1.0,1.0
44.84,36.4833,1.0,1.0,1.0
44.88,51.9778,1.0,1.0,1.0
44.92,98.5056,1.0,1.0,1.0
44.96,121.0,1.0,1.0,1.0
45.0,199.4944,1.0,1.0,1.0
45.04,248.4833,1.0,1.0,1.0
45.08,316.9889,1.0,1.0,1.0
45.12,327.9889,1.0,1.0,1.0
45.16,407.4944,1.0,1.0,1.0
45.2,405.0111,1.0,1.0,1.0
45.24,409.0,1.0,1.0,1.0
45.28,369.5167,1.0,1.0,1.0
45.32,315.0,1.0,1.0,1.0
45.36,251.9889,1.0,1.0,1.0
45.4,164.0,1.0,1.0,1.0
45.44,87.0,1.0,1.0,1.0
45.48,49.0,1.0,1.0,1.0
45.52,55.0,1.0,1.0,1.0
45.56,103.0,1.0,1.0,1.0
45.6,232.0,1.0,1.0,1.0
45.64,376.0222,1.0,1.0,1.0
45.68,622.5278,1.0,1.0,1.0
45.72,897.4611,1.0,1.0,1.0
45.76,1207.97,1.0,1.0,1.0
45.8,1624.41,1.0,1.0,1.0
45.84,1870.96,1.0,1.0,1.0
45.88,2225.93,1.0,1.0,1.0
45.92,2440.98,1.0,1.0,1.0
45.96,2575.51,1.0,1.0,1.0
46.0,2589.98,1.0,1.0,1.0
46.04,2632.96,1.0,1.0,1.0
46.08,2537.47,1.0,1.0,1.0
46.12,2293.55,1.0,1.0,1.0
46.16,1842.02,1.0,1.0,1.0
46.2,1495.53,1.0,1.0,1.0
46.24,1084.07,1.0,1.0,1.0
46.28,809.9667,1.0,1.0,1.0
46.32,1514.91,1.0,1.0,1.0
46.36,6629.27,1.0,1.0,1.0
46.4,42044.3,1.0,1.0,1.0
46.44,4705334.0,1.0,1.0,1.0
46.48,26950144.0,1.0,1.0,1.0
46.52,5644434.0,1.0,1.0,1.0
46.56,192339,1.0,1.0,1.0
46.6,69995.9,1.0,1.0,1.0
46.64,44742.9,1.0,1.0,1.0
46.68,34330.1,1.0,1.0,1.0
46.72,28089.6,1.0,1.0,1.0
46.76,24410.5,1.0,1.0,1.0
46.8,21091,1.0,1.0,1.0
46.84,18713.1,1.0,1.0,1.0
46.88,16320.5,1.0,1.0,1.0
46.92,14091.5,1.0,1.0,1.0
46.96,12098.9,1.0,1.0,1.0
47.0,10006.1,1.0,1.0,1.0
47.04,8100.04,1.0,1.0,1.0
47.08,6434.97,1.0,1.0,1.0
47.12,5138.71,1.0,1.0,1.0
47.16,3669.42,1.0,1.0,1.0
47.2,2539.02,1.0,1.0,1.0
47.24,1660.96,1.0,1.0,1.0
47.28,1008.04,1.0,1.0,1.0
47.32,481.4944,1.0,1.0,1.0
47.36,220.5056,1.0,1.0,1.0
47.4,104.0,1.0,1.0,1.0
47.44,113.5056,1.0,1.0,1.0
47.48,236.4944,1.0,1.0,1.0
47.52,391.0222,1.0,1.0,1.0
47.56,526.4722,1.0,1.0,1.0
47.6,707.9667,1.0,1.0,1.0
47.64,929.9445,1.0,1.0,1.0
47.68,1062.93,1.0,1.0,1.0
47.72,974.5056,1.0,1.0,1.0
47.76,1064.02,1.0,1.0,1.0
47.8,882.0222,1.0,1.0,1.0
47.84,841.0111,1.0,1.0,1.0
47.88,761.4944,1.0,1.0,1.0
47.92,604.4833,1.0,1.0,1.0
47.96,450.5278,1.0,1.0,1.0
48.0,264.5167,1.0,1.0,1.0
48.04,211.4833,1.0,1.0,1.0
48.08,123.9889,1.0,1.0,1.0
48.12,56.0111,1.0,1.0,1.0
48.16,40.0,1.0,1.0,1.0
48.2,36.0,1.0,1.0,1.0
48.24,48.5056,1.0,1.0,1.0
48.28,94.0,1.0,1.0,1.0
48.32,119.4944,1.0,1.0,1.0
48.36,158.4833,1.0,1.0,1.0
48.4,203.5056,1.0,1.0,1.0
48.44,186.9889,1.0,1.0,1.0
48.48,199.4611,1.0,1.0,1.0
48.52,159.9778,1.0,1.0,1.0
48.56,152.5056,1.0,1.0,1.0
48.6,138.0,1.0,1.0,1.0
48.64,127.0,1.0,1.0,1.0
48.68,69.9667,1.0,1.0,1.0
48.72,54.9889,1.0,1.0,1.0
48.76,35.4944,1.0,1.0,1.0
48.8,20.4944,1.0,1.0,1.0
48.84,21.0,1.0,1.0,1.0
48.88,24.5056,1.0,1.0,1.0
48.92,32.0,1.0,1.0,1.0
48.96,33.9889,1.0,1.0,1.0
49.0,50.5056,1.0,1.0,1.0
49.04,54.4944,1.0,1.0,1.0
49.08,72.4944,1.0,1.0,1.0
49.12,57.0,1.0,1.0,1.0
49.16,76.0,1.0,1.0,1.0
49.2,63.9889,1.0,1.0,1.0
49.24,81.5056,1.0,1.0,1.0
49.28,62.4944,1.0,1.0,1.0
49.32,43.5167,1.0,1.0,1.0
49.36,36.4944,1.0,1.0,1.0
49.4,33.4944,1.0,1.0,1.0
49.44,32.0,1.0,1.0,1.0
49.48,19.0,1.0,1.0,1.0
49.52,19.0,1.0,1.0,1.0
49.56,13.0,1.0,1.0,1.0
49.6,12.4944,1.0,1.0,1.0
49.64,6.0,1.0,1.0,1.0
49.68,20.0,1.0,1.0,1.0
49.72,22.4944,1.0,1.0,1.0
49.76,22.0,1.0,1.0,1.0
49.8,27.5056,1.0,1.0,1.0
49.84,21.0,1.0,1.0,1.0
49.88,29.4944,1.0,1.0,1.0
49.92,27.0,1.0,1.0,1.0
49.96,15.4833,1.0,1.0,1.0
50.0,23.0,1.0,1.0,1.0
50.04,7.4944,1.0,1.0,1.0
50.08,38.5056,1.0,1.0,1.0
50.12,17.0,1.0,1.0,1.0
50.16,14.0,1.0,1.0,1.0
50.2,8.0,1.0,1.0,1.0
50.24,7.0,1.0,1.0,1.0
50.28,8.0,1.0,1.0,1.0
50.32,9.0,1.0,1.0,1.0
50.36,10.4944,1.0,1.0,1.0
50.4,4.5056,1.0,1.0,1.0
50.44,16.4944,1.0,1.0,1.0
50.48,14.0,1.0,1.0,1.0
50.52,13.4944,1.0,1.0,1.0
50.56,7.4944,1.0,1.0,1.0
50.6,9.0,1.0,1.0,1.0
50.64,11.0,1.0,1.0,1.0
50.68,16.0,1.0,1.0,1.0
50.72,10.4944,1.0,1.0,1.0
50.76,11.0,1.0,1.0,1.0
50.8,5.4944,1.0,1.0,1.0
50.84,2.0,1.0,1.0,1.0
50.88,7.0,1.0,1.0,1.0
50.92,14.0,1.0,1.0,1.0
50.96,0.0,1.0,1.0,1.0
51.0,11.0,1.0,1.0,1.0
51.04,2.0,1.0,1.0,1.0
51.08,9.5056,1.0,1.0,1.0
51.12,7.0,1.0,1.0,1.0
51.16,9.0,1.0,1.0,1.0
51.2,0.0,1.0,1.0,1.0
51.24,2.5056,1.0,1.0,1.0
51.28,3.0,1.0,1.0,1.0
51.32,0.0,1.0,1.0,1.0
51.36,7.0,1.0,1.0,1.0
51.4,1.5056,1.0,1.0,1.0
51.44,4.0,1.0,1.0,1.0
51.48,7.0,1.0,1.0,1.0
51.52,6.0111,1.0,1.0,1.0
51.56,6.0,1.0,1.0,1.0
51.6,2.0,1.0,1.0,1.0
51.64,0.0,1.0,1.0,1.0
51.68,4.0,1.0,1.0,1.0
51.72,3.0,1.0,1.0,1.0
51.76,5.0,1.0,1.0,1.0
51.8,7.0,1.0,1.0,1.0
51.84,4.0,1.0,1.0,1.0
51.88,2.0,1.0,1.0,1.0
51.92,6.0,1.0,1.0,1.0
51.96,4.0,1.0,1.0,1.0
52.0,10.5056,1.0,1.0,1.0

File: 22163_002_XRD_2-Theta_Omega.asc
*TYPE		=  Raw
*CLASS		=  ASCII CLASS
*SAMPLE		=
*COMMENT	=
*FNAME		=  22163_002_XRD_2-Theta_Omega.asc
*DATE		=  21-Nov-22 23:21

*GROUP_COUNT	=  1
*GONIO		=  SmartLab(In-plane), 0.000000
*ATTACHMENT	=  Z-Phi Stage
*ASC		=  0, 0, 0.000000, 0.000000
*I_MONOCHRO	=  Ge(220)x2, 0.000000
*FILTER		=  None
*C_MONOCHRO	=  None, 0.000000
*SLIT_NAME	=  0, Incident slit
*SLIT_NAME	=  1, Receiving slit # 1
*SLIT_NAME	=  2, Receiving slit # 2
*COUNTER	=  D/teX Ultra 250, 0
*POS_FORMAT	=  0
*SCAN_AXIS	=  2Theta/Omega
*MEAS_MODE	=  Continuous Scanning
*TARGET		=  29
*XRAY_CHAR	=  K-ALPHA1
*WAVE_LENGTH1	=  1.54059
*WAVE_LENGTH2	=  1.54441
*THICKNESS	=  0, 0.000000
*MU		=  0, 0.000000
*SCAN_MODE	=  2Theta/Omega
*SPEED_DIM	=  sec./step
*XUNIT		=  deg.
*YUNIT		=  counts
*SCALE_MODE	=  1
*REP_COUNT	=  0
*SE_COUNT	=  0
*STD_MATERIAL	=  Unknown, Unknown, 0.000000, 0.000000, 0.000000, 0.000000, 0.000000, 0.000000
*LATT_CONS	=  0, Unknown, Unknown, 0.000000, 0.000000, 0.000000, 0.000000, 0.000000, 0.000000
*SEC_COUNT	=  1
*TSPEC_SIZE	=  0
*EXTRA_SIZE	=  0
*MEMO		=

*BEGIN
*GROUP		=  0
*START		=  42
*STOP		=  52
*STEP		=  0.01
*OFFSET		=  0.0344
*SPEED		=  23.9588
*SLIT_SPEC	=  0, 0.400mm, 0.4, 0.000000
*SLIT_SPEC	=  1, 0.400mm, 0.4, 0.000000
*SLIT_SPEC	=  2, 0.400mm, 0.4, 0.000000
*KV		=  40
*MA		=  30
*LOW		=  0.000000
*HIGH		=  0.000000
*CTEMPER	=  0, 0.000000
*CTEMPER	=  1, 0.000000
*CTEMPER	=  2, 0.000000
*PAREX		=  0, 0.000000
*PAREX		=  1, 0.000000
*PAREX		=  2, 0.000000
*PAREX		=  3, 0.000000
*PAREX		=  4, 0.000000
*PAREX		=  5, 0.000000
*PAREX		=  6, 0.000000
*PAREX		=  7, 0.000000
*PAREX		=  8, 0.000000
*PAREX		=  9, 0.000000
*PAREX		=  10, 0.000000
*PAREX		=  11, 0.000000
*PAREX		=  12, 0.000000
*PAREX		=  13, 0.000000
*PAREX		=  14, 0.000000
*PAREX		=  15, 0.000000
*FULL_SCALE	=  1434991.8
*INDEX		=  0, 0, 0
*COUNT		=  1001
8.49445, 7.50555, 7, 8
5, 10, 0.000000, 2
5, 10, 6, 10
3, 7, 8.98889, 10.0111
8, 8, 0.000000, 4
17.9889, 12.0111, 15, 6
3.49445, 4.50555, 14, 14
2, 15.4944, 8.50555, 10
14.4944, 22.4944, 24.0111, 12
16, 10, 16, 31
15, 17.4944, 21.5056, 26
37, 21, 21, 19
30.9889, 25.5056, 18.5056, 34.4944
16.5056, 35.9889, 22, 24.0111
10, 20, 19, 16
20, 20, 30, 14
28.4944, 16.5056, 9, 16.4944
25.5056, 9, 8, 8.98889
14.5056, 17.5056, 4, 7
5.49445, 9.50555, 13, 3.98889
12.0111, 16, 13, 11
7, 5, 18, 9
7, 11, 14, 17
29, 16, 14, 23
13, 13.9889, 35.0111, 30
30.9889, 39.0111, 40, 28
37.4944, 59, 33, 39.4944
43.4944, 43.0111, 58.5056, 53
40, 47.4944, 37.5056, 34
45, 46.9889, 39.0111, 41
35, 45, 23, 23.4944
39.5056, 48.4944, 27, 35.5056
33, 31, 18, 21
21, 41, 11, 19.4944
11.5056, 19, 12, 15
6, 20, 16, 7
23, 9, 3, 1.49445
13.5056, 15, 14, 18
12, 26, 13, 24
26, 19, 21, 31.4944
49.5056, 24, 29, 36
47, 42.9889, 54.0111, 42.4944
64, 66.9889, 54.0111, 75
71.4944, 73.4944, 72.5167, 62.9889
72.5056, 72.4944, 83.0111, 73.4944
88, 106, 78.9889, 107
88.5167, 81.4722, 93.5167, 83.5056
99.5056, 68.4833, 102, 99.0111
68, 74, 58, 72.9889
54.9889, 60.5278, 37.9889, 47.5056
44.5056, 37.9889, 43.5056, 28
23.5056, 35.4944, 30.5056, 29
18, 11, 12.9889, 30.5056
26.5056, 14, 14, 11
16, 13, 16, 21
21, 26.4944, 39, 53.9889
53.5056, 69.5056, 53.5056, 66
48.4944, 68, 101.494, 84.5056
102.989, 88.0111, 84.5056, 92.4833
113.011, 147.989, 114.506, 129.494
163.506, 149, 159.978, 136.033
165.494, 192.978, 179.011, 180.978
165.528, 186.494, 180.494, 170.011
147.989, 175.989, 164, 204.011
140.506, 157.472, 164.517, 180
171.022, 131.989, 133, 127.011
116.483, 104.517, 115.506, 114.989
79, 97, 78.9889, 71.0222
76, 65.4944, 57.5056, 26.9889
39.0111, 39.4833, 48.0111, 25.5056
31, 41.9889, 31.0111, 34
36.4833, 42, 39.5167, 43.4944
51.9778, 42.5278, 64, 90.4944
98.5056, 99.9889, 121.494, 110.506
121, 154.494, 158.011, 172
199.494, 207.989, 202, 227.011
248.483, 261.506, 294.494, 298.494
316.989, 318.506, 359.967, 314.55
327.989, 380.483, 380.011, 401.989
407.494, 390.011, 380.506, 406.989
405.011, 398.506, 382.494, 389.011
409, 351.483, 371.022, 359.483
369.517, 336.011, 343.967, 301.517
315, 259.978, 288.506, 234.033
251.989, 184.011, 181.989, 164.517
164, 128.506, 111.483, 101.506
87, 108.506, 57, 67.5056
49, 30.4944, 59, 52.4944
55, 66.0111, 107.494, 112
103, 128.989, 134.494, 173
232, 313, 287, 334.461
376.022, 467.439, 515.539, 622.978
622.528, 689.483, 792.483, 782
897.461, 984.461, 1087.54, 1182.02
1207.97, 1250.48, 1336.47, 1502.02
1624.41, 1611.02, 1801.53, 1886.53
1870.96, 1966.52, 2084.45, 2111.02
2225.93, 2304.51, 2194.54, 2399.52
2440.98, 2485.49, 2514.02, 2543
2575.51, 2541.96, 2546.96, 2746.55
2589.98, 2793.97, 2654.07, 2649.48
2632.96, 2613.06, 2517.54, 2514.46
2537.47, 2462.57, 2315.98, 2266.45
2293.55, 2163.01, 1969.99, 2012.02
1842.02, 1810.48, 1718.54, 1622.02
1495.53, 1450.01, 1258.55, 1077.41
1084.07, 936, 885.989, 850.011
809.967, 898.528, 981.044, 1235.92
1514.91, 2149, 3034.9, 4286.57
6629.27, 10454.9, 16634.7, 26130
42044.3, 72397.1, 163220, 1228988.9
4705334, 6690393.5, 8725066, 15133646
26950144, 22282796, 13088360, 7955903
5644434, 1307357.8, 449555, 273563
192339, 135432, 103018, 83077.4
69995.9, 60910.1, 53897.2, 48828.9
44742.9, 41091.1, 38552.9, 36022
34330.1, 32593.2, 31005.8, 29771.8
28089.6, 27302.2, 26297.8, 25472.5
24410.5, 23528, 22845.7, 21906.3
21091, 20578.9, 19970.8, 19318.3
18713.1, 17912.9, 17416.4, 16862.5
16320.5, 15784.6, 15011, 14586.8
14091.5, 13548.6, 13068.5, 12434.6
12098.9, 11379.7, 11126.6, 10631.5
10006.1, 9580.13, 9237.02, 8705.58
8100.04, 7942.17, 7393.43, 7113.64
6434.97, 6140.56, 5659.48, 5398.9
5138.71, 4690.09, 4370.97, 3939.62
3669.42, 3351.07, 3059.04, 2910.99
2539.02, 2375.1, 2106.94, 1856.58
1660.96, 1436.59, 1282.48, 1081
1008.04, 895.494, 705.044, 634.494
481.494, 427.528, 346.989, 272.528
220.506, 172.483, 141.022, 134.506
104, 98.9889, 89.5056, 113
113.506, 132.989, 185.989, 173.011
236.494, 239.967, 305.539, 342.956
391.022, 437.472, 491.989, 542.033
526.472, 614.506, 673.506, 680.506
707.967, 799.011, 833.494, 874.494
929.944, 1016.02, 917.517, 938.044
1062.93, 955, 1024.48, 1038.52
974.506, 1078.51, 1075.53, 1019.46
1064.02, 1057.94, 1059.03, 984.033
882.022, 942.506, 956.483, 881.494
841.011, 784.494, 809.494, 815
761.494, 686.011, 662.483, 648.561
604.483, 548.494, 509.517, 511.978
450.528, 411.494, 369.011, 353.011
264.517, 276.978, 241.528, 228.494
211.483, 160.517, 150.989, 135.011
123.989, 83.5056, 90.9889, 82.5056
56.0111, 75.5056, 57.4944, 56.4944
40, 34.0111, 42, 29
36, 37.4833, 38.5167, 46.4944
48.5056, 62.4944, 66.4833, 81.0111
94, 94.9778, 92.5278, 112.989
119.494, 120.011, 119.506, 121.494
158.483, 182.011, 150.494, 184.989
203.506, 162.517, 195.967, 188.539
186.989, 180.494, 212, 219.022
199.461, 170.528, 175.989, 157.506
159.978, 169.011, 183.011, 173
152.506, 172.011, 158.472, 146.022
138, 144, 107.494, 96.4833
127, 135.011, 132.517, 109
69.9667, 70.5167, 80.4944, 50.0222
54.9889, 51.0111, 44.9889, 35.0111
35.4944, 22.5056, 31.4944, 15.5056
20.4944, 32.5056, 27, 29
21, 27, 32.4944, 23
24.5056, 19.4944, 20.5056, 24
32, 30, 26, 39
33.9889, 29.5056, 53, 42
50.5056, 50.4833, 61.0111, 60.4944
54.4944, 43.5167, 79.9778, 64.0222
72.4944, 65.5056, 60.4833, 70.5056
57, 78.5056, 73.9889, 88.5167
76, 63.4833, 83.4944, 83.0222
63.9889, 72.5056, 92.5056, 74.4944
81.5056, 68.9889, 54, 37.0111
62.4944, 49, 55.5056, 46.4833
43.5167, 53.9889, 40, 38.0111
36.4944, 26.5056, 37.4944, 35.5056
33.4944, 22.5056, 30, 20
32, 21.4833, 32.0111, 6.50555
19, 17.9889, 33.0111, 15
19, 18, 3, 17
13, 8, 11.4944, 13.5056
12.4944, 10.5056, 11, 16
6, 21, 11, 11
20, 21.4944, 14, 21
22.4944, 23.0111, 21.4944, 13.5056
22, 29, 26.4944, 39.4944
27.5056, 42.5056, 35.4944, 30.5056
21, 26, 20.4833, 25.5167
29.4944, 32.5056, 20, 21.4944
27, 31.4944, 20.0111, 9
15.4833, 32.5167, 27, 11
23, 10, 8.49445, 17.5056
7.49445, 21.5056, 10, 13.9889
38.5056, 10.5056, 5.49445, 12.5056
17, 16, 7, 12
14, 7, 9, 9
8, 4, 21.4944, 6.50555
7, 8, 12, 10
8, 4, 12, 14
9, 13, 6, 13
10.4944, 11.5056, 14, 10.4944
4.50555, 9, 16, 15
16.4944, 21, 13.5056, 11
14, 2, 6, 19
13.4944, 23.5056, 19, 13
7.49445, 14.5056, 18, 14
9, 18, 16, 3
11, 5, 8, 8
16, 7, 13, 15
10.4944, 5.50555, 9, 15
11, 0.000000, 8, 5
5.49445, 3.50555, 10, 0.000000
2, 12, 2, 5
7, 4, 3, 4
14, 7, 0.000000, 14
0.000000, 5, 4, 9
11, 8, 7, 9
2, 0.000000, 8, 13.4944
9.50555, 7, 3, 5
7, 3.98889, 8.01111, 2
9, 9, 10.4944, 9.50555
0.000000, 3, 3, 7.49445
2.50555, 12, 5, 9
3, 3, 4, 5
0.000000, 5, 4, 0.000000
7, 5, 11, 0.494446
1.50555, 0.000000, 9, 5
4, 2, 58, 7
7, 4.49445, 6, 7.49445
6.01111, 5, 7, 8
6, 4, 9, 3
2, 10.4944, 9.50555, 7
0.000000, 3.49445, 7.50555, 0.000000
4, 8, 4, 3
3, 4.49445, 4.50555, 2
5, 0.000000, 9, 10
7, 0.000000, 6.49445, 12.5056
4, 16, 0.000000, 11
2, 9, 1, 2
6, 0.000000, 10, 7
4, 2, 2, 3.49445
10.5056
*END

*EOF