Folder: Analysis/XRD:XRR/LCO/22172_LCOL

File: 22172_LCOL_002_XRD.csv
#twotheta, yobs, ycal, bkg, diff
42.0,23.0,1.0,1.0,1.0
42.05,8.0,1.0,1.0,1.0
42.1,19.5056,1.0,1.0,1.0
42.15,20.0,1.0,1.0,1.0
42.2,9.0,1.0,1.0,1.0
42.25,17.0,1.0,1.0,1.0
42.3,18.4944,1.0,1.0,1.0
42.35,27.0,1.0,1.0,1.0
42.4,26.0,1.0,1.0,1.0
42.45,45.5056,1.0,1.0,1.0
42.5,20.4944,1.0,1.0,1.0
42.55,21.0,1.0,1.0,1.0
42.6,31.4944,1.0,1.0,1.0
42.65,20.0,1.0,1.0,1.0
42.7,21.0,1.0,1.0,1.0
42.75,34.0111,1.0,1.0,1.0
42.8,23.4944,1.0,1.0,1.0
42.85,33.9889,1.0,1.0,1.0
42.9,29.0111,1.0,1.0,1.0
42.95,33.0,1.0,1.0,1.0
43.0,31.5056,1.0,1.0,1.0
43.05,14.0,1.0,1.0,1.0
43.1,27.4944,1.0,1.0,1.0
43.15,18.5056,1.0,1.0,1.0
43.2,38.0,1.0,1.0,1.0
43.25,33.0,1.0,1.0,1.0
43.3,58.4944,1.0,1.0,1.0
43.35,58.0,1.0,1.0,1.0
43.4,34.0,1.0,1.0,1.0
43.45,41.5056,1.0,1.0,1.0
43.5,33.0111,1.0,1.0,1.0
43.55,16.0,1.0,1.0,1.0
43.6,18.5056,1.0,1.0,1.0
43.65,28.4944,1.0,1.0,1.0
43.7,42.5056,1.0,1.0,1.0
43.75,52.4944,1.0,1.0,1.0
43.8,96.0,1.0,1.0,1.0
43.85,77.0,1.0,1.0,1.0
43.9,60.4944,1.0,1.0,1.0
43.95,29.5056,1.0,1.0,1.0
44.0,35.0,1.0,1.0,1.0
44.05,41.0,1.0,1.0,1.0
44.1,47.0,1.0,1.0,1.0
44.15,75.0111,1.0,1.0,1.0
44.2,102.9889,1.0,1.0,1.0
44.25,113.0,1.0,1.0,1.0
44.3,109.0333,1.0,1.0,1.0
44.35,94.5056,1.0,1.0,1.0
44.4,73.5167,1.0,1.0,1.0
44.45,55.0,1.0,1.0,1.0
44.5,36.5167,1.0,1.0,1.0
44.55,55.9889,1.0,1.0,1.0
44.6,104.5056,1.0,1.0,1.0
44.65,189.4833,1.0,1.0,1.0
44.7,258.4833,1.0,1.0,1.0
44.75,262.0,1.0,1.0,1.0
44.8,278.4833,1.0,1.0,1.0
44.85,212.5278,1.0,1.0,1.0
44.9,132.0222,1.0,1.0,1.0
44.95,65.9889,1.0,1.0,1.0
45.0,104.0111,1.0,1.0,1.0
45.05,271.0,1.0,1.0,1.0
45.1,431.4722,1.0,1.0,1.0
45.15,737.4278,1.0,1.0,1.0
45.2,893.0111,1.0,1.0,1.0
45.25,1003.56,1.0,1.0,1.0
45.3,911.5056,1.0,1.0,1.0
45.35,676.4944,1.0,1.0,1.0
45.4,370.9667,1.0,1.0,1.0
45.45,473.9556,1.0,1.0,1.0
45.5,1029.93,1.0,1.0,1.0
45.55,2549.98,1.0,1.0,1.0
45.6,5011.439,1.0,1.0,1.0
45.65,8584.41,1.0,1.0,1.0
45.7,13172.6,1.0,1.0,1.0
45.75,17456.9,1.0,1.0,1.0
45.8,21911.1,1.0,1.0,1.0
45.85,26011.2,1.0,1.0,1.0
45.9,28034.6,1.0,1.0,1.0
45.95,28348.8,1.0,1.0,1.0
46.0,26848.877,1.0,1.0,1.0
46.05,23697.416,1.0,1.0,1.0
46.1,19311.2,1.0,1.0,1.0
46.15,14378.8,1.0,1.0,1.0
46.2,9727.13,1.0,1.0,1.0
46.25,5761.18,1.0,1.0,1.0
46.3,3011.69,1.0,1.0,1.0
46.35,1337.0,1.0,1.0,1.0
46.4,835.0667,1.0,1.0,1.0
46.45,1032.47,1.0,1.0,1.0
46.5,1586.58,1.0,1.0,1.0
46.55,1994.49,1.0,1.0,1.0
46.6,2200.02,1.0,1.0,1.0
46.65,2067.02,1.0,1.0,1.0
46.7,1697.01,1.0,1.0,1.0
46.75,1263.07,1.0,1.0,1.0
46.8,825.4722,1.0,1.0,1.0
46.85,563.4833,1.0,1.0,1.0
46.9,625.4944,1.0,1.0,1.0
46.95,787.55,1.0,1.0,1.0
47.0,1013.54,1.0,1.0,1.0
47.05,1243.94,1.0,1.0,1.0
47.1,1372.54,1.0,1.0,1.0
47.15,1272.58,1.0,1.0,1.0
47.2,1194.47,1.0,1.0,1.0
47.25,1035.46,1.0,1.0,1.0
47.3,899.0,1.0,1.0,1.0
47.35,967.9333,1.0,1.0,1.0
47.4,1088.47,1.0,1.0,1.0
47.45,1517.48,1.0,1.0,1.0
47.5,1830.56,1.0,1.0,1.0
47.55,2333.46,1.0,1.0,1.0
47.6,2914.49,1.0,1.0,1.0
47.65,3387.96,1.0,1.0,1.0
47.7,4042.41,1.0,1.0,1.0
47.75,5676.54,1.0,1.0,1.0
47.8,9501.38,1.0,1.0,1.0
47.85,24654.334,1.0,1.0,1.0
47.9,1471851.75,1.0,1.0,1.0
47.95,1744818.0,1.0,1.0,1.0
48.0,14375355.0,1.0,1.0,1.0
48.05,267233,1.0,1.0,1.0
48.1,33127,1.0,1.0,1.0
48.15,10200.1,1.0,1.0,1.0
48.2,5122.0,1.0,1.0,1.0
48.25,3042.9,1.0,1.0,1.0
48.3,2166.07,1.0,1.0,1.0
48.35,1459.56,1.0,1.0,1.0
48.4,1012.93,1.0,1.0,1.0
48.45,671.5167,1.0,1.0,1.0
48.5,462.9556,1.0,1.0,1.0
48.55,369.4944,1.0,1.0,1.0
48.6,326.5389,1.0,1.0,1.0
48.65,287.5167,1.0,1.0,1.0
48.7,297.4722,1.0,1.0,1.0
48.75,232.0111,1.0,1.0,1.0
48.8,218.0222,1.0,1.0,1.0
48.85,165.9778,1.0,1.0,1.0
48.9,143.0111,1.0,1.0,1.0
48.95,102.0111,1.0,1.0,1.0
49.0,85.0,1.0,1.0,1.0
49.05,70.0,1.0,1.0,1.0
49.1,61.4944,1.0,1.0,1.0
49.15,92.0222,1.0,1.0,1.0
49.2,85.9889,1.0,1.0,1.0
49.25,87.0,1.0,1.0,1.0
49.3,71.4944,1.0,1.0,1.0
49.35,69.0,1.0,1.0,1.0
49.4,40.0,1.0,1.0,1.0
49.45,49.0,1.0,1.0,1.0
49.5,56.5278,1.0,1.0,1.0
49.55,33.0,1.0,1.0,1.0
49.6,44.9889,1.0,1.0,1.0
49.65,38.0,1.0,1.0,1.0
49.7,39.0,1.0,1.0,1.0
49.75,33.0,1.0,1.0,1.0
49.8,34.9778,1.0,1.0,1.0
49.85,19.0,1.0,1.0,1.0
49.9,17.0111,1.0,1.0,1.0
49.95,14.0,1.0,1.0,1.0
50.0,26.0,1.0,1.0,1.0
50.05,21.4944,1.0,1.0,1.0
50.1,21.0,1.0,1.0,1.0
50.15,18.4944,1.0,1.0,1.0
50.2,17.0,1.0,1.0,1.0
50.25,38.0,1.0,1.0,1.0
50.3,8.9889,1.0,1.0,1.0
50.35,26.5056,1.0,1.0,1.0
50.4,22.5056,1.0,1.0,1.0
50.45,24.4944,1.0,1.0,1.0
50.5,12.5056,1.0,1.0,1.0
50.55,8.0111,1.0,1.0,1.0
50.6,14.4944,1.0,1.0,1.0
50.65,23.0111,1.0,1.0,1.0
50.7,8.0,1.0,1.0,1.0
50.75,10.4944,1.0,1.0,1.0
50.8,15.0,1.0,1.0,1.0
50.85,16.0,1.0,1.0,1.0
50.9,20.0,1.0,1.0,1.0
50.95,17.5056,1.0,1.0,1.0
51.0,14.0,1.0,1.0,1.0
51.05,7.5056,1.0,1.0,1.0
51.1,10.0,1.0,1.0,1.0
51.15,10.0,1.0,1.0,1.0
51.2,10.0,1.0,1.0,1.0
51.25,14.4944,1.0,1.0,1.0
51.3,7.0,1.0,1.0,1.0
51.35,12.0,1.0,1.0,1.0
51.4,6.0,1.0,1.0,1.0
51.45,7.0,1.0,1.0,1.0
51.5,9.0,1.0,1.0,1.0
51.55,8.0,1.0,1.0,1.0
51.6,8.0,1.0,1.0,1.0
51.65,21.0,1.0,1.0,1.0
51.7,5.0,1.0,1.0,1.0
51.75,6.4944,1.0,1.0,1.0
51.8,16.5056,1.0,1.0,1.0
51.85,6.0,1.0,1.0,1.0
51.9,8.0,1.0,1.0,1.0
51.95,6.0,1.0,1.0,1.0
52.0,16.0,1.0,1.0,1.0
0.44,1714498.0,1.0,1.0,1.0
0.49,1815987.0,1.0,1.0,1.0
0.54,1859570.5,1.0,1.0,1.0
0.59,1867453.0,1.0,1.0,1.0
0.64,1560134.5,1.0,1.0,1.0
0.69,1205191.125,1.0,1.0,1.0
0.74,825420,1.0,1.0,1.0
0.79,517554,1.0,1.0,1.0
0.84,313801,1.0,1.0,1.0
0.89,204207,1.0,1.0,1.0
0.94,145641,1.0,1.0,1.0
0.99,108606,1.0,1.0,1.0
1.04,81877.0,1.0,1.0,1.0
1.09,61360,1.0,1.0,1.0
1.14,47385.5,1.0,1.0,1.0
1.19,38264,1.0,1.0,1.0
1.24,31635.5,1.0,1.0,1.0
1.29,26634.502,1.0,1.0,1.0
1.34,22501,1.0,1.0,1.0
1.39,18159.0,1.0,1.0,1.0
1.44,14931.002,1.0,1.0,1.0
1.49,12375.502,1.0,1.0,1.0
1.54,10416.5,1.0,1.0,1.0
1.59,9052.498,1.0,1.0,1.0
1.64,7900.0,1.0,1.0,1.0
1.69,6983.501,1.0,1.0,1.0
1.74,6084.5,1.0,1.0,1.0
1.79,5388.5,1.0,1.0,1.0
1.84,4529.5,1.0,1.0,1.0
1.89,3926,1.0,1.0,1.0
1.94,3589.5,1.0,1.0,1.0
1.99,3166,1.0,1.0,1.0
2.04,2942.5,1.0,1.0,1.0
2.09,2666.0,1.0,1.0,1.0
2.14,2494.5,1.0,1.0,1.0
2.19,2314,1.0,1.0,1.0
2.24,2022,1.0,1.0,1.0
2.29,1852,1.0,1.0,1.0
2.34,1699.0,1.0,1.0,1.0
2.39,1671,1.0,1.0,1.0
2.44,1594.5,1.0,1.0,1.0
2.49,1442,1.0,1.0,1.0
2.54,1402.5,1.0,1.0,1.0
2.59,1360,1.0,1.0,1.0
2.64,1291.5,1.0,1.0,1.0
2.69,1197.5,1.0,1.0,1.0
2.74,1115.5,1.0,1.0,1.0
2.79,1122,1.0,1.0,1.0
2.84,1062,1.0,1.0,1.0
2.89,1044,1.0,1.0,1.0
2.94,940.0003,1.0,1.0,1.0
2.99,913.4994,1.0,1.0,1.0
3.04,866.0,1.0,1.0,1.0
3.09,865.9999,1.0,1.0,1.0
3.14,796.5005,1.0,1.0,1.0
3.19,748.4996,1.0,1.0,1.0
3.24,740.9999,1.0,1.0,1.0
3.29,679.4998,1.0,1.0,1.0
3.34,670.5002,1.0,1.0,1.0
3.39,632.4998,1.0,1.0,1.0
3.44,590.5002,1.0,1.0,1.0
3.49,616.5001,1.0,1.0,1.0
3.54,547.9996,1.0,1.0,1.0
3.59,529.0,1.0,1.0,1.0
3.64,439.0004,1.0,1.0,1.0
3.69,436.5001,1.0,1.0,1.0
3.74,455.0,1.0,1.0,1.0
3.79,408.5001,1.0,1.0,1.0
3.84,370.0002,1.0,1.0,1.0
3.89,357.0001,1.0,1.0,1.0
3.94,314.0,1.0,1.0,1.0
3.99,289.0002,1.0,1.0,1.0
4.04,275.0002,1.0,1.0,1.0
4.09,257.9998,1.0,1.0,1.0
4.14,210.0002,1.0,1.0,1.0
4.19,234.0,1.0,1.0,1.0
4.24,219.9998,1.0,1.0,1.0
4.29,203.5001,1.0,1.0,1.0
4.34,212.0,1.0,1.0,1.0
4.39,155.5003,1.0,1.0,1.0
4.44,168.0,1.0,1.0,1.0
4.49,169.5001,1.0,1.0,1.0
4.5,147.4999,1.0,1.0,1.0

File: 22172_LCOL_002_XRD_2-Theta_Omega.asc
*TYPE		=  Raw
*CLASS		=  ASCII CLASS
*SAMPLE		=
*COMMENT	=
*FNAME		=  22172_LCOL_002_XRD_2-Theta_Omega.asc
*DATE		=  10-Jan-23 01:27

*GROUP_COUNT	=  1
*GONIO		=  SmartLab(In-plane), 0.000000
*ATTACHMENT	=  Z-Phi Stage
*ASC		=  0, 0, 0.000000, 0.000000
*I_MONOCHRO	=  Ge(220)x2, 0.000000
*FILTER		=  None
*C_MONOCHRO	=  None, 0.000000
*SLIT_NAME	=  0, Incident slit
*SLIT_NAME	=  1, Receiving slit # 1
*SLIT_NAME	=  2, Receiving slit # 2
*COUNTER	=  D/teX Ultra 250, 0
*POS_FORMAT	=  0
*SCAN_AXIS	=  2Theta/Omega
*MEAS_MODE	=  Continuous Scanning
*TARGET		=  29
*XRAY_CHAR	=  K-ALPHA1
*WAVE_LENGTH1	=  1.54059
*WAVE_LENGTH2	=  1.54441
*THICKNESS	=  0, 0.000000
*MU		=  0, 0.000000
*SCAN_MODE	=  2Theta/Omega
*SPEED_DIM	=  sec./step
*XUNIT		=  deg.
*YUNIT		=  counts
*SCALE_MODE	=  1
*REP_COUNT	=  0
*SE_COUNT	=  0
*STD_MATERIAL	=  Unknown, Unknown, 0.000000, 0.000000, 0.000000, 0.000000, 0.000000, 0.000000
*LATT_CONS	=  0, Unknown, Unknown, 0.000000, 0.000000, 0.000000, 0.000000, 0.000000, 0.000000
*SEC_COUNT	=  2
*TSPEC_SIZE	=  0
*EXTRA_SIZE	=  0
*MEMO		=

*BEGIN
*GROUP		=  0
*START		=  42
*STOP		=  52
*STEP		=  0.01
*OFFSET		=  0.007
*SPEED		=  23.9588
*SLIT_SPEC	=  0, 0.400mm, 0.4, 0.000000
*SLIT_SPEC	=  1, 0.400mm, 0.4, 0.000000
*SLIT_SPEC	=  2, 0.400mm, 0.4, 0.000000
*KV		=  40
*MA		=  30
*LOW		=  0.000000
*HIGH		=  0.000000
*CTEMPER	=  0, 0.000000
*CTEMPER	=  1, 0.000000
*CTEMPER	=  2, 0.000000
*PAREX		=  0, 0.000000
*PAREX		=  1, 0.000000
*PAREX		=  2, 0.000000
*PAREX		=  3, 0.000000
*PAREX		=  4, 0.000000
*PAREX		=  5, 0.000000
*PAREX		=  6, 0.000000
*PAREX		=  7, 0.000000
*PAREX		=  8, 0.000000
*PAREX		=  9, 0.000000
*PAREX		=  10, 0.000000
*PAREX		=  11, 0.000000
*PAREX		=  12, 0.000000
*PAREX		=  13, 0.000000
*PAREX		=  14, 0.000000
*PAREX		=  15, 0.000000
*FULL_SCALE	=  1500013.9
*INDEX		=  0, 0, 0
*COUNT		=  1001
23, 23, 14.4944, 30
14.5056, 8, 12, 13.4944
36.5056, 15.4944, 19.5056, 19
21, 11, 5, 20
17.4944, 14.5056, 14, 17
9, 26, 20, 7.49445
18.5056, 17, 20, 13
25, 26, 18.4944, 6.50555
15, 27, 31, 27
29, 31.4944, 22.4944, 26.0111
26, 25.9889, 30.4944, 28.0111
33, 45.5056, 20, 35.4944
21.5056, 15.4944, 20.4944, 26.0111
13, 33, 12.4944, 21
13, 16.5056, 19.4944, 12.5056
31.4944, 16, 17.5056, 14
16, 20, 21, 15
12, 14, 21, 22.4944
17.5056, 17, 18.9889, 34.0111
30, 38, 29.4833, 40.5167
23.4944, 22.5056, 17, 43
44, 33.9889, 39.0111, 36.4944
28.5056, 40.9889, 29.0111, 51.9889
41.0111, 33, 46, 33
31.9889, 19.0111, 24, 27.9889
31.5056, 19.5056, 24.9889, 22.0111
22, 14, 15, 22
13, 12, 27.4944, 16.5056
18.4944, 26.5056, 19.4944, 18.5056
16.4944, 21.5056, 23.4833, 42.5167
38, 23.4944, 33.5056, 37.4944
50.9889, 33, 49.5167, 29
50.9889, 19.0111, 58.4944, 40.5056
33, 36, 35, 58
55, 59.4833, 52.5167, 31
34, 39, 37, 33.9889
39.5056, 41.5056, 32.4944, 40.5056
20, 31.9889, 33.0111, 15
33, 16, 26, 16
19.4944, 9.50555, 27, 22.4944
18.5056, 24.4944, 30.5056, 25
24.4944, 28.4944, 24.5056, 25.4944
53, 53.5056, 42.5056, 46
48, 63.9889, 58.0111, 52.4944
64.5056, 64.4944, 82.4944, 76.5056
96, 69.9889, 77.5056, 83
66.5056, 77, 75.5056, 56.4944
56.4944, 45.0111, 60.4944, 57
50.5056, 55.9889, 32.5056, 29.5056
13.9889, 43.5056, 34.4944, 33.0111
35, 16, 28.9889, 17.0111
15, 41, 30.4944, 25.4944
41, 30.0111, 47, 44
50.4944, 48, 60.9889, 75.0111
81.4944, 88.0111, 86.9889, 98
102.989, 104, 124.022, 122.472
118.011, 113, 130.506, 122.483
152.022, 120.461, 109.033, 124
111.506, 103.989, 87.5056, 94.5056
94, 96.4944, 86.5056, 70.9778
73.5167, 68.5056, 51.5056, 59.4944
60, 55, 29.4944, 21.0111
31, 35.9778, 36.5167, 43
43.5056, 32.4833, 48.5167, 55.9889
48.0111, 81.4944, 93.5056, 112.989
104.506, 123.506, 135.483, 155.517
144.978, 189.483, 226.539, 219.483
192.472, 245.022, 258.483, 245.506
270.989, 305.517, 274.494, 262
280.494, 250.011, 280.494, 273.022
278.483, 247.483, 243.989, 252.55
223.472, 212.528, 186, 186.483
169.506, 147.989, 132.022, 140
92, 88.4944, 76, 65.9889
72.0111, 77, 64, 101.483
104.011, 126.494, 135, 160.989
191.022, 271, 252.494, 328.472
353.528, 361.45, 431.472, 513.539
540.417, 602.056, 627.011, 737.428
783.583, 781.967, 895.989, 884.022
893.011, 931.45, 981.528, 957.539
1014.42, 1003.56, 944.483, 970.494
949.011, 950.956, 911.506, 848.506
779.539, 690.483, 729.55, 676.494
578.967, 533.528, 474.528, 492.011
370.967, 414.506, 391.011, 397.472
401.044, 473.956, 511.033, 675.956
680.989, 893.506, 1029.93, 1263
1476.99, 1809.96, 2153.98, 2549.98
2888.84, 3418.99, 3870.93, 4329.93
5011.44, 5663.47, 6245.9, 7050.9
7714.44, 8584.41, 9355.35, 10301.5
11043.4, 11965.4, 13172.6, 13904.2
14914.9, 15788, 16575.7, 17456.9
18711.4, 19237.8, 20479.1, 21460.7
21911.1, 22938.7, 24143.6, 24576.7
25303, 26011.2, 26187.4, 26857.6
27417, 27581.9, 28034.6, 28196.4
28433.4, 28764.5, 28672.2, 28348.8
28141.6, 28057.2, 27707.2, 27257.7
26848.9, 26335.4, 25703.5, 25034.4
24262.9, 23697.4, 22924.6, 21819.2
20982.9, 20072.7, 19311.2, 18252.1
17141.1, 16033.5, 15402.5, 14378.8
13338.6, 12317, 11422.1, 10521.1
9727.13, 8783.1, 7957.04, 7261.1
6493.47, 5761.18, 5060.64, 4458.42
3892.17, 3430.49, 3011.69, 2602.47
2143.99, 1918.08, 1657.06, 1337
1191.99, 1108.04, 987.483, 894.506
835.067, 820.439, 801.978, 885.494
941.506, 1032.47, 1095.51, 1239.46
1372.04, 1472.38, 1586.58, 1592.94
1744.52, 1828.96, 1919.53, 1994.49
2053.49, 2127.03, 2182.9, 2204.01
2200.02, 2211.49, 2242.55, 2164.44
2095.52, 2067.02, 2027.51, 1945.01
1972.58, 1833.94, 1697.01, 1639.01
1511, 1383.01, 1392, 1263.07
1214.98, 1079, 955.517, 898.528
825.472, 731.033, 731.011, 647.472
612.528, 563.483, 559.989, 580.528
572.989, 536.506, 625.494, 568.989
667.506, 666, 751.967, 787.55
797.472, 922.978, 940.011, 988.956
1013.54, 1123.98, 1125.02, 1156.47
1263.51, 1243.94, 1315.56, 1406.46
1373.02, 1372.96, 1372.54, 1489.45
1409.03, 1337.96, 1347.02, 1272.58
1316.96, 1299.51, 1281.55, 1221.96
1194.47, 1217.53, 1147.03, 1091.02
1057, 1035.46, 982, 896.022
844.506, 972.506, 899, 907.944
923.078, 885.417, 901.572, 967.933
985.067, 1046.45, 1008.97, 1073.11
1088.47, 1126.41, 1255.97, 1341.01
1442.04, 1517.48, 1534, 1663.43
1687.08, 1752.41, 1830.56, 2006.97
2104.47, 2090.45, 2263.54, 2333.46
2402.48, 2419.53, 2609.02, 2869.98
2914.49, 2884.44, 2977.99, 3098.55
3279.98, 3387.96, 3480.55, 3720.46
3735.49, 3935.96, 4042.41, 4403.49
4568.99, 4857.93, 5119.46, 5676.54
6229.86, 6691.87, 7369.52, 8325.88
9501.38, 10827.9, 12675.7, 14983.6
18742.5, 24654.3, 34019.3, 56780.1
172512, 734399, 1471851.8, 2449409.3
1802591.4, 1551345.6, 1554067.4, 1744818
3323261.5, 4111437.8, 5693869, 24652184
14375355, 4750030.5, 2001651.5, 962438
504433, 267233, 154075, 94983
62292.1, 44505.3, 33127, 24925.6
18968.7, 15454.2, 12271.8, 10200.1
8630.58, 7299.21, 6457.1, 5541.57
5122, 4496.65, 4033.03, 3731.98
3344.18, 3042.9, 2862.06, 2672.61
2463.01, 2273.41, 2166.07, 1951.48
1885.56, 1670.45, 1546.02, 1459.56
1380.98, 1242.54, 1222.97, 1068.07
1012.93, 934.056, 854.506, 830.978
697.033, 671.517, 624.022, 609.483
540.483, 489.022, 462.956, 472.55
393.989, 427.011, 433.011, 369.494
328.011, 347.978, 346.989, 386.011
326.539, 286.967, 297.528, 324.461
319.022, 287.517, 290.483, 318.472
281, 273.539, 297.472, 270.517
276.033, 246.956, 265.517, 232.011
264.978, 224.989, 250.033, 227.989
218.022, 225.989, 210.494, 226.472
211.033, 165.978, 168.022, 170.011
161.483, 178.011, 143.011, 127.494
[...]
12, 6, 9, 4
6, 5, 8, 11
6, 6, 5, 6
3, 10.4944, 9.50555, 13
16
*END

*BEGIN
*GROUP		=  0
*START		=  0.4
*STOP		=  4.5
*STEP		=  0.01
*OFFSET		=  0.007
*SPEED		=  5.95853
*SLIT_SPEC	=  0, 1.000mm, 1, 0.000000
*SLIT_SPEC	=  1, 1.000mm, 1, 0.000000
*SLIT_SPEC	=  2, 1.000mm, 1, 0.000000
*KV		=  40
*MA		=  30
*LOW		=  0.000000
*HIGH		=  0.000000
*CTEMPER	=  0, 0.000000
*CTEMPER	=  1, 0.000000
*CTEMPER	=  2, 0.000000
*PAREX		=  0, 0.000000
*PAREX		=  1, 0.000000
*PAREX		=  2, 0.000000
*PAREX		=  3, 0.000000
*PAREX		=  4, 0.000000
*PAREX		=  5, 0.000000
*PAREX		=  6, 0.000000
*PAREX		=  7, 0.000000
*PAREX		=  8, 0.000000
*PAREX		=  9, 0.000000
*PAREX		=  10, 0.000000
*PAREX		=  11, 0.000000
*PAREX		=  12, 0.000000
*PAREX		=  13, 0.000000
*PAREX		=  14, 0.000000
*PAREX		=  15, 0.000000
*FULL_SCALE	=  388244
*INDEX		=  0, 0, 0
*COUNT		=  411
1608145, 1636577, 1663064, 1691950
1714498, 1737779, 1758687.5, 1778576
1798426.5, 1815987, 1829942.5, 1843090.5
1849314, 1856310, 1859570.5, 1860075
1851875.5, 1892081, 1893708.5, 1867453
1829299.5, 1786599.6, 1735240.5, 1624418.1
1560134.5, 1497731.1, 1430790.1, 1357927.1
1282236.6, 1205191.1, 1126828.6, 1047968.6
973459, 897433, 825420, 762288
690526, 626704, 571826, 517554
467180, 422660, 381942, 345686
313801, 285907, 263710, 238312
220612, 204207, 190112, 176741
166064, 155169, 145641, 136623
130082, 122326, 115143, 108606
103050, 97322, 91827.5, 86734
81877, 77149, 72864.5, 68616.5
65266, 61360, 58054, 55101
52605.5, 49985.5, 47385.5, 45222.5
42998.5, 41530, 39715.5, 38264
36720, 35639, 34221.5, 32875
31635.5, 30900.5, 29891, 28672.5
27928, 26634.5, 25735, 24884.5
24065, 23062, 22501, 21399.5
20505.5, 19798.5, 19077, 18159
17453.5, 16914, 16172, 15695
14931, 14282.5, 13688, 13271.5
12849.5, 12375.5, 11781.5, 11533.5
11118, 10909.5, 10416.5, 9952.5
9821.5, 9544, 9360.5, 9052.5
8926.5, 8676.5, 8329, 8236
7900, 7689, 7475.5, 7530
7171, 6983.5, 6721.5, 6699.5
6564.5, 6269.5, 6084.5, 5955
5835.5, 5567, 5357.5, 5388.5
5053, 5010, 4735.5, 4721
4529.5, 4454, 4260, 4121
4082.5, 3926, 3905.5, 3772.5
3731, 3566, 3589.5, 3486
3352, 3218.5, 3227.5, 3166
3059.5, 3088.5, 3030, 2930.5
2942.5, 2848.5, 2893.5, 2759
2787, 2666, 2612, 2615.5
2578, 2455, 2494.5, 2541
2527.5, 2351, 2364, 2314
2303.5, 2127, 2214, 2172
2022, 2008, 1987, 1879.5
1894, 1852, 1865, 1847
1761, 1722.5, 1699, 1770.5
1685, 1588, 1666.5, 1671
1659.5, 1607, 1596.5, 1642
1594.5, 1543, 1533.5, 1520
1503, 1442, 1470.5, 1486
1390.5, 1453.5, 1402.5, 1465
1432.5, 1369.5, 1372, 1360
1390, 1296.5, 1277.5, 1298.5
1291.5, 1274.5, 1233, 1227
1240, 1197.5, 1158, 1170
1187, 1108.5, 1115.5, 1211.5
1101, 1088, 1096.5, 1122
1076.5, 1112.5, 1024.5, 1061
1062, 1101.5, 1007, 954.5
1006, 1044, 1011, 960.5
998, 982.5, 940, 978
950, 901, 930.501, 913.499
960.5, 932.5, 913.5, 939.5
866, 841.5, 902.5, 878
873.5, 866, 832, 796.5
782.5, 787, 796.5, 799.5
749.5, 768, 777.5, 748.5
768, 739.5, 768, 632.5
741, 682.5, 700, 695.5
692, 679.5, 666.5, 681.5
723, 635.5, 670.5, 656.5
604, 633, 603, 632.5
628.5, 629, 614, 581.5
590.5, 605, 582, 581.5
566.5, 616.5, 572, 543.5
504, 527, 548, 515.5
527.5, 506, 496.5, 529
499.5, 469.5, 384, 472
439, 462.5, 435.5, 451
432.5, 436.5, 419.5, 389.5
400, 443, 455, 370
394.5, 403, 416.5, 408.5
372.5, 394.5, 389.5, 401.5
370, 413.5, 360, 387.5
366, 357, 316.5, 366.5
309.5, 316.5, 314, 325
321.5, 284.5, 275, 289
310.5, 274, 286, 302
275, 298.5, 286, 254
283.5, 258, 237, 257.5
235.5, 217, 210, 241
257, 258, 214.5, 234
212.5, 220, 242.5, 209.5
220, 234, 209, 217
158.5, 203.5, 179, 218
214.5, 185, 212, 202
188, 166.5, 155.5, 155.5
175.5, 172, 184.5, 147.5
168, 162.5, 167, 158.5
146.5, 169.5, 147.5
*END

*EOF