Folder: Analysis/XRD:XRR/RIXS 214/M12

File: M12c_L2NON_220_XRD.csv
#twotheta, yobs, ycal, bkg, diff
42.0,2602.96,1.0,1.0,1.0
42.04,3330.58,1.0,1.0,1.0
42.08,4109.439,1.0,1.0,1.0
42.12,4889.54,1.0,1.0,1.0
42.16,5927.99,1.0,1.0,1.0
42.2,7078.52,1.0,1.0,1.0
42.24,7987.45,1.0,1.0,1.0
42.28,9033.9,1.0,1.0,1.0
42.32,10045.3,1.0,1.0,1.0
42.36,11021.4,1.0,1.0,1.0
42.4,11775.7,1.0,1.0,1.0
42.44,12604,1.0,1.0,1.0
42.48,13263.583,1.0,1.0,1.0
42.52,13531.7,1.0,1.0,1.0
42.56,13961.6,1.0,1.0,1.0
42.6,14207.5,1.0,1.0,1.0
42.64,14077.6,1.0,1.0,1.0
42.68,13717.6,1.0,1.0,1.0
42.72,13481,1.0,1.0,1.0
42.76,12757.9,1.0,1.0,1.0
42.8,12156.1,1.0,1.0,1.0
42.84,11342.1,1.0,1.0,1.0
42.88,10342.6,1.0,1.0,1.0
42.92,9291.03,1.0,1.0,1.0
42.96,8406.62,1.0,1.0,1.0
43.0,7226.49,1.0,1.0,1.0
43.04,6219.65,1.0,1.0,1.0
43.08,5255.96,1.0,1.0,1.0
43.12,4352.98,1.0,1.0,1.0
43.16,3532.38,1.0,1.0,1.0
43.2,2808.02,1.0,1.0,1.0
43.24,2064.0,1.0,1.0,1.0
43.28,1452.52,1.0,1.0,1.0
43.32,1081.47,1.0,1.0,1.0
43.36,794.5278,1.0,1.0,1.0
43.4,569.0667,1.0,1.0,1.0
43.44,362.9778,1.0,1.0,1.0
43.48,338.5278,1.0,1.0,1.0
43.52,314.9667,1.0,1.0,1.0
43.56,405.5056,1.0,1.0,1.0
43.6,404.5167,1.0,1.0,1.0
43.64,514.0,1.0,1.0,1.0
43.68,596.9667,1.0,1.0,1.0
43.72,704.4944,1.0,1.0,1.0
43.76,786.0333,1.0,1.0,1.0
43.8,826.5278,1.0,1.0,1.0
43.84,848.0,1.0,1.0,1.0
43.88,875.0,1.0,1.0,1.0
43.92,837.5278,1.0,1.0,1.0
43.96,768.5056,1.0,1.0,1.0
44.0,716.5278,1.0,1.0,1.0
44.04,635.5278,1.0,1.0,1.0
44.08,566.9556,1.0,1.0,1.0
44.12,505.55,1.0,1.0,1.0
44.16,421.0,1.0,1.0,1.0
44.2,346.5278,1.0,1.0,1.0
44.24,293.5056,1.0,1.0,1.0
44.28,279.4833,1.0,1.0,1.0
44.32,254.4833,1.0,1.0,1.0
44.36,220.4944,1.0,1.0,1.0
44.4,218.5056,1.0,1.0,1.0
44.44,270.5056,1.0,1.0,1.0
44.48,270.5056,1.0,1.0,1.0
44.52,301.0111,1.0,1.0,1.0
44.56,333.4944,1.0,1.0,1.0
44.6,408.4833,1.0,1.0,1.0
44.64,385.5167,1.0,1.0,1.0
44.68,440.5167,1.0,1.0,1.0
44.72,390.0222,1.0,1.0,1.0
44.76,400.0,1.0,1.0,1.0
44.8,452.9889,1.0,1.0,1.0
44.84,416.4611,1.0,1.0,1.0
44.88,403.0,1.0,1.0,1.0
44.92,347.5167,1.0,1.0,1.0
44.96,367.4833,1.0,1.0,1.0
45.0,312.5056,1.0,1.0,1.0
45.04,274.4944,1.0,1.0,1.0
45.08,301.4833,1.0,1.0,1.0
45.12,259.4833,1.0,1.0,1.0
45.16,261.9889,1.0,1.0,1.0
45.2,267.9889,1.0,1.0,1.0
45.24,249.9889,1.0,1.0,1.0
45.28,247.4944,1.0,1.0,1.0
45.32,223.0,1.0,1.0,1.0
45.36,270.9889,1.0,1.0,1.0
45.4,281.9889,1.0,1.0,1.0
45.44,293.5167,1.0,1.0,1.0
45.48,391.9778,1.0,1.0,1.0
45.52,379.4611,1.0,1.0,1.0
45.56,389.5056,1.0,1.0,1.0
45.6,406.4833,1.0,1.0,1.0
45.64,401.0,1.0,1.0,1.0
45.68,416.5278,1.0,1.0,1.0
45.72,421.0111,1.0,1.0,1.0
45.76,412.0,1.0,1.0,1.0
45.8,437.5167,1.0,1.0,1.0
45.84,395.5278,1.0,1.0,1.0
45.88,407.4833,1.0,1.0,1.0
45.92,402.9778,1.0,1.0,1.0
45.96,423.9778,1.0,1.0,1.0
46.0,393.0222,1.0,1.0,1.0
46.04,453.0222,1.0,1.0,1.0
46.08,445.0,1.0,1.0,1.0
46.12,534.0111,1.0,1.0,1.0
46.16,498.0222,1.0,1.0,1.0
46.2,543.4722,1.0,1.0,1.0
46.24,604.9778,1.0,1.0,1.0
46.28,641.5167,1.0,1.0,1.0
46.32,762.45,1.0,1.0,1.0
46.36,932.8277,1.0,1.0,1.0
46.4,999.5167,1.0,1.0,1.0
46.44,1004.02,1.0,1.0,1.0
46.48,1129.02,1.0,1.0,1.0
46.52,1185.07,1.0,1.0,1.0
46.56,1322.44,1.0,1.0,1.0
46.6,1594.02,1.0,1.0,1.0
46.64,1813.49,1.0,1.0,1.0
46.68,2083.99,1.0,1.0,1.0
46.72,2440.51,1.0,1.0,1.0
46.76,2943.53,1.0,1.0,1.0
46.8,3873.1,1.0,1.0,1.0
46.84,5072.92,1.0,1.0,1.0
46.88,7611.89,1.0,1.0,1.0
46.92,14707.5,1.0,1.0,1.0
46.96,36582.4,1.0,1.0,1.0
47.0,70868.2,1.0,1.0,1.0
47.04,202409,1.0,1.0,1.0
47.08,3491662.0,1.0,1.0,1.0
47.12,372651.875,1.0,1.0,1.0
47.16,51780.5,1.0,1.0,1.0
47.2,19833.2,1.0,1.0,1.0
47.24,10133.1,1.0,1.0,1.0
47.28,6326.66,1.0,1.0,1.0
47.32,4207.08,1.0,1.0,1.0
47.36,2949.52,1.0,1.0,1.0
47.4,2161.49,1.0,1.0,1.0
47.44,1707.52,1.0,1.0,1.0
47.48,1395.46,1.0,1.0,1.0
47.52,1135.02,1.0,1.0,1.0
47.56,886.0333,1.0,1.0,1.0
47.6,757.0333,1.0,1.0,1.0
47.64,650.4722,1.0,1.0,1.0
47.68,572.5278,1.0,1.0,1.0
47.72,547.5389,1.0,1.0,1.0
47.76,424.0333,1.0,1.0,1.0
47.8,420.45,1.0,1.0,1.0
47.84,301.0,1.0,1.0,1.0
47.88,305.0,1.0,1.0,1.0
47.92,262.4944,1.0,1.0,1.0
47.96,238.9778,1.0,1.0,1.0
48.0,219.5056,1.0,1.0,1.0
48.04,202.0,1.0,1.0,1.0
48.08,208.5278,1.0,1.0,1.0
48.12,157.9889,1.0,1.0,1.0
48.16,169.4944,1.0,1.0,1.0
48.2,128.5056,1.0,1.0,1.0
48.24,137.4833,1.0,1.0,1.0
48.28,128.4944,1.0,1.0,1.0
48.32,114.4944,1.0,1.0,1.0
48.36,116.4944,1.0,1.0,1.0
48.4,120.4833,1.0,1.0,1.0
48.44,116.4944,1.0,1.0,1.0
48.48,99.0111,1.0,1.0,1.0
48.52,94.5167,1.0,1.0,1.0
48.56,138.0111,1.0,1.0,1.0
48.6,106.0,1.0,1.0,1.0
48.64,86.0111,1.0,1.0,1.0
48.68,77.4944,1.0,1.0,1.0
48.72,94.4944,1.0,1.0,1.0
48.76,94.4944,1.0,1.0,1.0
48.8,49.0,1.0,1.0,1.0
48.84,73.9889,1.0,1.0,1.0
48.88,56.5056,1.0,1.0,1.0
48.92,60.4833,1.0,1.0,1.0
48.96,77.5056,1.0,1.0,1.0
49.0,69.0111,1.0,1.0,1.0
49.04,75.5056,1.0,1.0,1.0
49.08,57.0111,1.0,1.0,1.0
49.12,56.0,1.0,1.0,1.0
49.16,48.4944,1.0,1.0,1.0
49.2,41.4833,1.0,1.0,1.0
49.24,57.0,1.0,1.0,1.0
49.28,69.5056,1.0,1.0,1.0
49.32,52.0,1.0,1.0,1.0
49.36,45.5056,1.0,1.0,1.0
49.4,41.4944,1.0,1.0,1.0
49.44,51.5056,1.0,1.0,1.0
49.48,43.0,1.0,1.0,1.0
49.52,56.0111,1.0,1.0,1.0
49.56,56.0,1.0,1.0,1.0
49.6,43.4944,1.0,1.0,1.0
49.64,41.0,1.0,1.0,1.0
49.68,46.0111,1.0,1.0,1.0
49.72,45.5056,1.0,1.0,1.0
49.76,32.4944,1.0,1.0,1.0
49.8,40.5056,1.0,1.0,1.0
49.84,48.5056,1.0,1.0,1.0
49.88,49.4944,1.0,1.0,1.0
49.92,35.5056,1.0,1.0,1.0
49.96,30.5056,1.0,1.0,1.0
50.0,41.0,1.0,1.0,1.0
50.04,44.0,1.0,1.0,1.0
50.08,41.0,1.0,1.0,1.0
50.12,44.0111,1.0,1.0,1.0
50.16,39.0,1.0,1.0,1.0
50.2,53.4833,1.0,1.0,1.0
50.24,36.0,1.0,1.0,1.0
50.28,43.4944,1.0,1.0,1.0
50.32,58.4833,1.0,1.0,1.0
50.36,26.5056,1.0,1.0,1.0
50.4,36.5056,1.0,1.0,1.0
50.44,36.5056,1.0,1.0,1.0
50.48,48.4944,1.0,1.0,1.0
50.52,33.5056,1.0,1.0,1.0
50.56,35.4944,1.0,1.0,1.0
50.6,34.0,1.0,1.0,1.0
50.64,36.4944,1.0,1.0,1.0
50.68,52.5056,1.0,1.0,1.0
50.72,32.0111,1.0,1.0,1.0
50.76,48.5056,1.0,1.0,1.0
50.8,43.0,1.0,1.0,1.0
50.84,38.4944,1.0,1.0,1.0
50.88,38.0,1.0,1.0,1.0
50.92,26.9889,1.0,1.0,1.0
50.96,49.0,1.0,1.0,1.0
51.0,36.0,1.0,1.0,1.0
51.04,39.0,1.0,1.0,1.0
51.08,40.5056,1.0,1.0,1.0
51.12,42.0111,1.0,1.0,1.0
51.16,41.0111,1.0,1.0,1.0
51.2,49.0,1.0,1.0,1.0
51.24,36.5056,1.0,1.0,1.0
51.28,38.9889,1.0,1.0,1.0
51.32,29.4944,1.0,1.0,1.0
51.36,30.4944,1.0,1.0,1.0
51.4,41.9889,1.0,1.0,1.0
51.44,45.5056,1.0,1.0,1.0
51.48,38.0,1.0,1.0,1.0
51.52,23.9889,1.0,1.0,1.0
51.56,41.5056,1.0,1.0,1.0
51.6,29.9889,1.0,1.0,1.0
51.64,32.0,1.0,1.0,1.0
51.68,39.0,1.0,1.0,1.0
51.72,32.9889,1.0,1.0,1.0
51.76,40.4944,1.0,1.0,1.0
51.8,47.0,1.0,1.0,1.0
51.84,42.0,1.0,1.0,1.0
51.88,30.5056,1.0,1.0,1.0
51.92,40.9889,1.0,1.0,1.0
51.96,30.4944,1.0,1.0,1.0
52.0,21.9889,1.0,1.0,1.0

File: M12c_L2NON_220_XRD_2-Theta_Omega.asc
*TYPE		=  Raw
*CLASS		=  ASCII CLASS
*SAMPLE		=
*COMMENT	=
*FNAME		=  M12c_L2NON_220_XRD_2-Theta_Omega.asc
*DATE		=  10-Nov-22 17:05

*GROUP_COUNT	=  1
*GONIO		=  SmartLab(In-plane), 0.000000
*ATTACHMENT	=  Z-Phi Stage
*ASC		=  0, 0, 0.000000, 0.000000
*I_MONOCHRO	=  Ge(220)x2, 0.000000
*FILTER		=  None
*C_MONOCHRO	=  None, 0.000000
*SLIT_NAME	=  0, Incident slit
*SLIT_NAME	=  1, Receiving slit # 1
*SLIT_NAME	=  2, Receiving slit # 2
*COUNTER	=  D/teX Ultra 250, 0
*POS_FORMAT	=  0
*SCAN_AXIS	=  2Theta/Omega
*MEAS_MODE	=  Continuous Scanning
*TARGET		=  29
*XRAY_CHAR	=  K-ALPHA1
*WAVE_LENGTH1	=  1.54059
*WAVE_LENGTH2	=  1.54441
*THICKNESS	=  0, 0.000000
*MU		=  0, 0.000000
*SCAN_MODE	=  2Theta/Omega
*SPEED_DIM	=  sec./step
*XUNIT		=  deg.
*YUNIT		=  counts
*SCALE_MODE	=  1
*REP_COUNT	=  0
*SE_COUNT	=  0
*STD_MATERIAL	=  Unknown, Unknown, 0.000000, 0.000000, 0.000000, 0.000000, 0.000000, 0.000000
*LATT_CONS	=  0, Unknown, Unknown, 0.000000, 0.000000, 0.000000, 0.000000, 0.000000, 0.000000
*SEC_COUNT	=  1
*TSPEC_SIZE	=  0
*EXTRA_SIZE	=  0
*MEMO		=

*BEGIN
*GROUP		=  0
*START		=  42
*STOP		=  52
*STEP		=  0.01
*OFFSET		=  0.0414
*SPEED		=  23.9588
*SLIT_SPEC	=  0, 0.400mm, 0.4, 0.000000
*SLIT_SPEC	=  1, 0.400mm, 0.4, 0.000000
*SLIT_SPEC	=  2, 0.400mm, 0.4, 0.000000
*KV		=  40
*MA		=  30
*LOW		=  0.000000
*HIGH		=  0.000000
*CTEMPER	=  0, 0.000000
*CTEMPER	=  1, 0.000000
*CTEMPER	=  2, 0.000000
*PAREX		=  0, 0.000000
*PAREX		=  1, 0.000000
*PAREX		=  2, 0.000000
*PAREX		=  3, 0.000000
*PAREX		=  4, 0.000000
*PAREX		=  5, 0.000000
*PAREX		=  6, 0.000000
*PAREX		=  7, 0.000000
*PAREX		=  8, 0.000000
*PAREX		=  9, 0.000000
*PAREX		=  10, 0.000000
*PAREX		=  11, 0.000000
*PAREX		=  12, 0.000000
*PAREX		=  13, 0.000000
*PAREX		=  14, 0.000000
*PAREX		=  15, 0.000000
*FULL_SCALE	=  2295621
*INDEX		=  0, 0, 0
*COUNT		=  1001
2602.96, 2713.54, 2933.39, 3151.01
3330.58, 3529.42, 3727.96, 3900.48
4109.44, 4334.54, 4467.42, 4808.99
4889.54, 5385.88, 5336.51, 5788.02
5927.99, 6142.74, 6480.11, 6729.02
7078.52, 7193.88, 7417.11, 7885.35
7987.45, 8249.07, 8452.83, 8750.59
9033.9, 9243.49, 9692.93, 9577.57
10045.3, 10079.7, 10532.5, 10872.9
11021.4, 11196.4, 11318.6, 11514.4
11775.7, 12286.3, 12349.7, 12348.8
12604, 12743.6, 12737.5, 13175.5
13263.6, 13415, 13507.8, 13422.5
13531.7, 13953.3, 13782.6, 13827.3
13961.6, 13838.1, 13952.4, 14124.6
14207.5, 14122.9, 14164.6, 13907.4
14077.6, 13747.1, 13992.9, 13859.1
13717.6, 13681.3, 13576.6, 13373.9
13481, 13223.5, 13185.6, 12846.6
12757.9, 12698.6, 12545.4, 12235.6
12156.1, 11860.3, 11501.7, 11569.5
11342.1, 10957.5, 10803, 10450.4
10342.6, 9962.52, 9931.1, 9452.38
9291.03, 9010.07, 8776.1, 8509.91
8406.62, 7945.58, 7827.98, 7588.02
7226.49, 7181.03, 6819.98, 6623.48
6219.65, 6007.34, 5762.59, 5501.59
5255.96, 4949.04, 4881.08, 4562.55
4352.98, 4133.55, 3872.46, 3705.61
3532.38, 3290.21, 3120.57, 2853.94
2808.02, 2607.99, 2435.11, 2260.42
2064, 1930.51, 1737.04, 1766.02
1452.52, 1396.53, 1312.98, 1118.06
1081.47, 1001.48, 889.056, 752.461
794.528, 753.517, 605.483, 628.989
569.067, 482.472, 465.539, 376.506
362.978, 374.022, 329.494, 333.472
338.528, 316.506, 294.483, 304.022
314.967, 321, 373.022, 348.978
405.506, 404.967, 423.011, 477.517
404.517, 460.978, 482.989, 537.517
514, 572.967, 593.528, 589
596.967, 650.472, 628.989, 717.033
704.494, 742, 749, 756.011
786.033, 804.989, 826.472, 794.483
826.528, 880.472, 832.978, 861.539
848, 845.483, 861.967, 865.044
875, 876.944, 812.606, 832.428
837.528, 800.044, 801.933, 781.022
768.506, 775, 749.483, 743
716.528, 683.506, 735.494, 634.472
635.528, 592.967, 575.044, 571.022
566.956, 550.044, 510.978, 503.967
505.55, 466.494, 458.011, 483.494
421, 386.506, 409.978, 376.517
346.528, 298.506, 363.956, 284.022
293.506, 341.989, 247, 276.517
279.483, 244.033, 239.45, 292.044
254.483, 259.011, 259.011, 242.483
220.494, 269.011, 229.494, 229.989
218.506, 243.506, 258.978, 272.011
270.506, 281.989, 287.989, 274.033
270.506, 291.989, 356, 269.483
301.011, 314.978, 294.494, 314.517
333.494, 353.989, 367.989, 354.55
408.483, 370.494, 375.494, 406.483
385.517, 387.494, 383.494, 454
440.517, 429.978, 432.022, 441
390.022, 405.461, 427.033, 423.483
400, 416.989, 444, 402.011
452.989, 391.011, 392.494, 412.022
416.461, 383.506, 367.528, 403.483
403, 351.517, 340, 394.989
347.517, 389.989, 344.494, 338.506
367.483, 337.011, 321, 336.506
312.506, 311.989, 301.022, 316.494
274.494, 257.506, 263.506, 260.506
301.483, 236.989, 274.506, 254.517
259.483, 238.483, 223.528, 232.989
261.989, 242.506, 236.528, 212.483
267.989, 238.011, 234.011, 235.483
249.989, 271.517, 263.483, 278.022
247.494, 227, 286.989, 234.506
223, 265.022, 254.978, 234.011
270.989, 328.022, 286, 283.978
281.989, 341.517, 306.483, 300
293.517, 331.506, 392, 331.494
391.978, 345.494, 335.044, 354.989
379.461, 325.528, 353.517, 369.989
389.506, 387.494, 385, 412.989
406.483, 413.517, 408.472, 446.517
401, 389.472, 421.55, 394.967
416.528, 436.461, 418.033, 393.483
421.011, 426.517, 458.989, 422.989
412, 406.022, 398.472, 388.506
437.517, 397.472, 401.022, 434.472
395.528, 419, 384.494, 404
407.483, 419.011, 470.978, 380.539
402.978, 410.011, 395.483, 402.528
423.978, 396.022, 411.517, 433.461
393.022, 426.506, 441.956, 424.494
453.022, 450.494, 444.494, 467
445, 468.528, 476, 505.978
534.011, 512.483, 515, 508
498.022, 527.461, 609.022, 497.022
543.472, 544, 565.472, 607.044
604.978, 624.506, 611.472, 701.506
641.517, 669.472, 664.539, 722.483
762.45, 757.517, 774, 827.722
932.828, 810.45, 902, 882.506
999.517, 902.483, 995.022, 929.472
1004.02, 1001.01, 1017.48, 1067.96
1129.02, 1121.56, 1154.41, 1182.96
1185.07, 1272.45, 1309.54, 1307.55
1322.44, 1392.01, 1416.02, 1581.92
1594.02, 1603, 1616, 1746.47
1813.49, 1864.45, 1892.06, 1963.98
2083.99, 2192.03, 2192.43, 2350.03
2440.51, 2541.52, 2687.35, 2780.03
2943.53, 3194.9, 3357.01, 3681.93
3873.1, 4156.87, 4329.46, 4658.96
5072.92, 5622.54, 6173.94, 6729.39
7611.89, 8672.72, 9702.41, 11462.9
14707.5, 19452.5, 24217.8, 31146
36582.4, 40368.7, 47000.7, 57858.6
70868.2, 87282.6, 109937, 146242
202409, 294790, 501322, 1137521
3491662, 32171676, 12031358, 1082685.3
372652, 194164, 115468, 74854.8
51780.5, 38480.3, 30064.9, 23865.6
19833.2, 16260.1, 13838.7, 11844.6
10133.1, 9061.84, 7893.03, 6920.01
6326.66, 5508, 5082.1, 4387.49
4207.08, 3762.49, 3526.01, 3161.57
2949.52, 2752.06, 2603.56, 2352.03
2161.49, 1994.49, 1884.55, 1871.47
1707.52, 1663.54, 1552.45, 1452.58
1395.46, 1224.49, 1141, 1102.54
1135.02, 1037.49, 1025.46, 1048
886.033, 865.539, 841, 875.483
757.033, 703.472, 688.517, 664.022
650.472, 661.978, 643.461, 621.55
572.528, 560.011, 545.978, 505.978
547.539, 442.989, 507.044, 434.461
424.033, 405.956, 438.517, 405.033
420.45, 351.517, 333.539, 365.967
301, 344.022, 339.483, 321.517
305, 283.472, 306.011, 306.022
262.494, 258.517, 234.989, 243
238.978, 249.989, 252.044, 227.483
219.506, 237.506, 215, 205.989
202, 184, 179.011, 191.956
208.528, 181.517, 173, 186
157.989, 183.483, 174, 173.528
169.494, 160, 147, 118.506
128.506, 135.494, 161.011, 141.506
137.483, 133.483, 129.528, 119.494
128.494, 124.506, 116.494, 133.506
114.494, 105.506, 129.989, 122.022
116.494, 107, 115.989, 93.5167
120.483, 127.989, 127.022, 101.494
116.494, 111.517, 100.989, 115
99.0111, 90.4944, 97, 80.9889
94.5167, 99.4944, 88.5056, 91.4833
138.011, 99.9889, 81.5056, 76.0111
106, 62.9667, 90.5278, 90.4944
86.0111, 45.9889, 69, 73.5056
77.4944, 92.5056, 89, 92.4944
94.4944, 105.517, 96.4833, 83.5056
94.4944, 71, 67.5167, 80
49, 70, 84.4944, 81.5056
73.9889, 69.0111, 61.4944, 67.4944
56.5056, 71.4944, 47.5056, 79
60.4833, 93.0222, 62.9778, 75.0111
77.5056, 66, 58.5056, 53.9889
69.0111, 65, 55.9889, 68
75.5056, 58.5056, 62.4833, 89.5056
57.0111, 73.4944, 43.9889, 65.5167
56, 57, 57.4833, 47.5167
48.4944, 50.4944, 66.0111, 53
41.4833, 48.0111, 78, 53.5056
57, 59, 54.9889, 65.4944
69.5056, 58.5056, 43.5056, 42
52, 67, 66, 37.9889
45.5056, 40.5056, 43.9889, 66.0111
41.4944, 65.4944, 38.9889, 29.5167
51.5056, 70.9889, 52.5056, 58
43, 66.4944, 36, 51
56.0111, 39, 40.9889, 60.0111
56, 49, 50.4833, 50.5167
43.4944, 39.5056, 60.4944, 46.5056
41, 54, 52.9889, 57
46.0111, 51, 48.9889, 51.5056
45.5056, 62.4833, 66.0111, 51.5056
32.4944, 37.5056, 45, 41.9889
40.5056, 49.4944, 43.5056, 53
48.5056, 33.4944, 58.5056, 33.4944
49.4944, 34.5056, 52, 35
35.5056, 35.4944, 37, 40
30.5056, 45.4944, 37.5056, 41
41, 53.4833, 40.4944, 46.5167
44, 35, 48.9889, 55.0111
41, 40.5056, 50.4944, 31.4944
44.0111, 49, 37.4944, 58.5056
39, 37, 41, 54
53.4833, 31.5167, 44.4944, 44.5056
36, 46, 41, 36
43.4944, 28, 40.9889, 42.0111
58.4833, 48.0222, 38, 49.4944
26.5056, 38.4833, 54.0111, 27.4944
36.5056, 45, 44.5056, 40.4944
36.5056, 44, 52.9889, 43.0111
48.4944, 38.5056, 29, 25.4944
33.5056, 31.4833, 42.5167, 29.4944
35.4944, 44.0111, 20, 34
34, 44, 42, 33
36.4944, 30.5056, 33, 59.9889
52.5056, 39.5056, 35.4944, 28.9889
32.0111, 50, 53.9889, 29.0111
48.5056, 46, 38.4944, 31
43, 33.5056, 47.9889, 48.0111
38.4944, 55.5056, 26, 25
38, 30, 37, 34.4944
26.9889, 25.5167, 53, 38.4944
49, 40.5056, 23.4944, 40.5056
36, 39.4944, 50.9889, 33.5167
39, 49.4944, 36.4944, 29.5056
40.5056, 35.4944, 38.5056, 27.9889
42.0111, 48, 31.4944, 44.4944
41.0111, 39.9889, 36.0111, 30
49, 43, 42, 17.4944
36.5056, 44, 32.9889, 29.0111
38.9889, 43.5056, 46, 60.5056
29.4944, 30.5056, 25.9889, 36.0111
30.4944, 25.5056, 37.4944, 29.5056
41.9889, 28.0111, 21, 41.4944
45.5056, 36, 33, 30
38, 32, 36.9889, 30.0111
23.9889, 35.0111, 45, 44.4944
41.5056, 37, 40.4944, 31.5056
29.9889, 30.0111, 42, 25.4944
32, 34, 30, 43
39, 46.5056, 40.9889, 39.5056
32.9889, 30.0111, 40.5056, 27
40.4944, 46.9889, 43.5167, 19
47, 32, 51.4944, 27
42, 30.5056, 23, 24.4944
30.5056, 25, 45, 32
40.9889, 47, 39.5056, 29.5056
30.4944, 28, 23.5056, 34
21.9889
*END

*EOF

File: M12f_L2NOT_200_XRD.csv
#twotheta, yobs, ycal, bkg, diff
42.0,195.4944,1.0,1.0,1.0
42.04,245.5056,1.0,1.0,1.0
42.08,358.0,1.0,1.0,1.0
42.12,567.5278,1.0,1.0,1.0
42.16,688.4944,1.0,1.0,1.0
42.2,1027.53,1.0,1.0,1.0
42.24,1265.02,1.0,1.0,1.0
42.28,1626.42,1.0,1.0,1.0
42.32,1993.92,1.0,1.0,1.0
42.36,2510.47,1.0,1.0,1.0
42.4,2918.02,1.0,1.0,1.0
42.44,3439.48,1.0,1.0,1.0
42.48,4009.43,1.0,1.0,1.0
42.52,4595.43,1.0,1.0,1.0
42.56,5220.9,1.0,1.0,1.0
42.6,5764.99,1.0,1.0,1.0
42.64,6100.34,1.0,1.0,1.0
42.68,6739.06,1.0,1.0,1.0
42.72,7001.439,1.0,1.0,1.0
42.76,7622.49,1.0,1.0,1.0
42.8,7783.92,1.0,1.0,1.0
42.84,8057.89,1.0,1.0,1.0
42.88,8256.38,1.0,1.0,1.0
42.92,8287.99,1.0,1.0,1.0
42.96,8166.42,1.0,1.0,1.0
43.0,7896.978,1.0,1.0,1.0
43.04,7756.12,1.0,1.0,1.0
43.08,7445.64,1.0,1.0,1.0
43.12,6988.54,1.0,1.0,1.0
43.16,6408.1,1.0,1.0,1.0
43.2,5854.09,1.0,1.0,1.0
43.24,5446.91,1.0,1.0,1.0
43.28,4753.94,1.0,1.0,1.0
43.32,4081.0,1.0,1.0,1.0
43.36,3518.07,1.0,1.0,1.0
43.4,2939.03,1.0,1.0,1.0
43.44,2472.62,1.0,1.0,1.0
43.48,1859.439,1.0,1.0,1.0
43.52,1498.55,1.0,1.0,1.0
43.56,1166.51,1.0,1.0,1.0
43.6,847.5167,1.0,1.0,1.0
43.64,660.4833,1.0,1.0,1.0
43.68,482.4611,1.0,1.0,1.0
43.72,424.4944,1.0,1.0,1.0
43.76,345.0,1.0,1.0,1.0
43.8,370.5056,1.0,1.0,1.0
43.84,496.0444,1.0,1.0,1.0
43.88,515.9889,1.0,1.0,1.0
43.92,590.9889,1.0,1.0,1.0
43.96,693.4833,1.0,1.0,1.0
44.0,776.5389,1.0,1.0,1.0
44.04,855.9778,1.0,1.0,1.0
44.08,899.0555,1.0,1.0,1.0
44.12,890.4278,1.0,1.0,1.0
44.16,968.4611,1.0,1.0,1.0
44.2,920.9778,1.0,1.0,1.0
44.24,847.0,1.0,1.0,1.0
44.28,817.4833,1.0,1.0,1.0
44.32,745.0111,1.0,1.0,1.0
44.36,655.5389,1.0,1.0,1.0
44.4,613.9778,1.0,1.0,1.0
44.44,508.9556,1.0,1.0,1.0
44.48,466.5167,1.0,1.0,1.0
44.52,374.9445,1.0,1.0,1.0
44.56,280.4833,1.0,1.0,1.0
44.6,288.4833,1.0,1.0,1.0
44.64,280.4833,1.0,1.0,1.0
44.68,300.9889,1.0,1.0,1.0
44.72,331.5056,1.0,1.0,1.0
44.76,339.4944,1.0,1.0,1.0
44.8,388.5167,1.0,1.0,1.0
44.84,435.5056,1.0,1.0,1.0
44.88,528.5056,1.0,1.0,1.0
44.92,506.4833,1.0,1.0,1.0
44.96,625.4722,1.0,1.0,1.0
45.0,540.4944,1.0,1.0,1.0
45.04,628.0,1.0,1.0,1.0
45.08,673.5611,1.0,1.0,1.0
45.12,727.4833,1.0,1.0,1.0
45.16,667.5167,1.0,1.0,1.0
45.2,637.4944,1.0,1.0,1.0
45.24,586.4944,1.0,1.0,1.0
45.28,572.4722,1.0,1.0,1.0
45.32,581.4833,1.0,1.0,1.0
45.36,544.9778,1.0,1.0,1.0
45.4,550.0,1.0,1.0,1.0
45.44,585.45,1.0,1.0,1.0
45.48,547.4833,1.0,1.0,1.0
45.52,521.5167,1.0,1.0,1.0
45.56,647.0333,1.0,1.0,1.0
45.6,638.9778,1.0,1.0,1.0
45.64,697.4611,1.0,1.0,1.0
45.68,814.0333,1.0,1.0,1.0
45.72,884.0222,1.0,1.0,1.0
45.76,960.0,1.0,1.0,1.0
45.8,1074.47,1.0,1.0,1.0
45.84,1140.98,1.0,1.0,1.0
45.88,1328.96,1.0,1.0,1.0
45.92,1481.03,1.0,1.0,1.0
45.96,1635.03,1.0,1.0,1.0
46.0,1868.37,1.0,1.0,1.0
46.04,2100.07,1.0,1.0,1.0
46.08,2418.96,1.0,1.0,1.0
46.12,2679.42,1.0,1.0,1.0
46.16,3178.93,1.0,1.0,1.0
46.2,4033.43,1.0,1.0,1.0
46.24,4977.43,1.0,1.0,1.0
46.28,7139.33,1.0,1.0,1.0
46.32,11151.4,1.0,1.0,1.0
46.36,24341.3,1.0,1.0,1.0
46.4,121256,1.0,1.0,1.0
46.44,567013.75,1.0,1.0,1.0
46.48,3490758.0,1.0,1.0,1.0
46.52,22197048.0,1.0,1.0,1.0
46.56,408053.875,1.0,1.0,1.0
46.6,44963.5,1.0,1.0,1.0
46.64,16077.4,1.0,1.0,1.0
46.68,8369.74,1.0,1.0,1.0
46.72,5193.45,1.0,1.0,1.0
46.76,3342.53,1.0,1.0,1.0
46.8,2333.48,1.0,1.0,1.0
46.84,1765.51,1.0,1.0,1.0
46.88,1384.96,1.0,1.0,1.0
46.92,1065.52,1.0,1.0,1.0
46.96,830.45,1.0,1.0,1.0
47.0,705.5167,1.0,1.0,1.0
47.04,552.0,1.0,1.0,1.0
47.08,499.4833,1.0,1.0,1.0
47.12,386.9667,1.0,1.0,1.0
47.16,367.0,1.0,1.0,1.0
47.2,326.0222,1.0,1.0,1.0
47.24,295.4944,1.0,1.0,1.0
47.28,258.0,1.0,1.0,1.0
47.32,253.5278,1.0,1.0,1.0
47.36,176.0222,1.0,1.0,1.0
47.4,155.0111,1.0,1.0,1.0
47.44,154.9889,1.0,1.0,1.0
47.48,140.5167,1.0,1.0,1.0
47.52,113.9889,1.0,1.0,1.0
47.56,83.5056,1.0,1.0,1.0
47.6,63.9778,1.0,1.0,1.0
47.64,79.9889,1.0,1.0,1.0
47.68,58.0,1.0,1.0,1.0
47.72,36.0,1.0,1.0,1.0
47.76,68.5056,1.0,1.0,1.0
47.8,43.0,1.0,1.0,1.0
47.84,38.0,1.0,1.0,1.0
47.88,33.5167,1.0,1.0,1.0
47.92,39.5056,1.0,1.0,1.0
47.96,49.4944,1.0,1.0,1.0
48.0,18.5056,1.0,1.0,1.0
48.04,24.0,1.0,1.0,1.0
48.08,26.0,1.0,1.0,1.0
48.12,29.0,1.0,1.0,1.0
48.16,30.0,1.0,1.0,1.0
48.2,16.0,1.0,1.0,1.0
48.24,17.4944,1.0,1.0,1.0
48.28,21.5056,1.0,1.0,1.0
48.32,13.0,1.0,1.0,1.0
48.36,30.0,1.0,1.0,1.0
48.4,10.9889,1.0,1.0,1.0
48.44,13.0,1.0,1.0,1.0
48.48,10.5056,1.0,1.0,1.0
48.52,13.4944,1.0,1.0,1.0
48.56,14.0,1.0,1.0,1.0
48.6,10.0,1.0,1.0,1.0
48.64,7.0,1.0,1.0,1.0
48.68,11.0,1.0,1.0,1.0
48.72,4.4944,1.0,1.0,1.0
48.76,6.0,1.0,1.0,1.0
48.8,1.4944,1.0,1.0,1.0
48.84,13.4944,1.0,1.0,1.0
48.88,6.0,1.0,1.0,1.0
48.92,14.5056,1.0,1.0,1.0
48.96,5.5056,1.0,1.0,1.0
49.0,13.0,1.0,1.0,1.0
49.04,9.4944,1.0,1.0,1.0
49.08,9.0,1.0,1.0,1.0
49.12,9.0,1.0,1.0,1.0
49.16,17.0,1.0,1.0,1.0
49.2,1.0111,1.0,1.0,1.0
49.24,17.0,1.0,1.0,1.0
49.28,12.0,1.0,1.0,1.0
49.32,5.4944,1.0,1.0,1.0
49.36,12.5056,1.0,1.0,1.0
49.4,8.0,1.0,1.0,1.0
49.44,9.9889,1.0,1.0,1.0
49.48,21.0,1.0,1.0,1.0
49.52,8.4944,1.0,1.0,1.0
49.56,12.0,1.0,1.0,1.0
49.6,5.0,1.0,1.0,1.0
49.64,4.0,1.0,1.0,1.0
49.68,5.0,1.0,1.0,1.0
49.72,2.0,1.0,1.0,1.0
49.76,4.0,1.0,1.0,1.0
49.8,4.0,1.0,1.0,1.0
49.84,7.0,1.0,1.0,1.0
49.88,11.0,1.0,1.0,1.0
49.92,0.0,1.0,1.0,1.0
49.96,5.0,1.0,1.0,1.0
50.0,0.0,1.0,1.0,1.0
50.04,5.0,1.0,1.0,1.0
50.08,14.0,1.0,1.0,1.0
50.12,2.0,1.0,1.0,1.0
50.16,2.0,1.0,1.0,1.0
50.2,12.4944,1.0,1.0,1.0
50.24,6.0,1.0,1.0,1.0
50.28,8.0,1.0,1.0,1.0
50.32,3.0,1.0,1.0,1.0
50.36,4.0,1.0,1.0,1.0
50.4,5.0,1.0,1.0,1.0
50.44,5.0,1.0,1.0,1.0
50.48,2.4944,1.0,1.0,1.0
50.52,8.0,1.0,1.0,1.0
50.56,10.5056,1.0,1.0,1.0
50.6,8.0,1.0,1.0,1.0
50.64,5.0,1.0,1.0,1.0
50.68,2.0,1.0,1.0,1.0
50.72,9.0,1.0,1.0,1.0
50.76,7.0,1.0,1.0,1.0
50.8,3.0,1.0,1.0,1.0
50.84,3.0,1.0,1.0,1.0
50.88,0.0,1.0,1.0,1.0
50.92,2.0,1.0,1.0,1.0
50.96,4.0,1.0,1.0,1.0
51.0,12.0,1.0,1.0,1.0
51.04,1.0,1.0,1.0,1.0
51.08,10.0,1.0,1.0,1.0
51.12,6.4944,1.0,1.0,1.0
51.16,2.0,1.0,1.0,1.0
51.2,8.0,1.0,1.0,1.0
51.24,2.0,1.0,1.0,1.0
51.28,3.0,1.0,1.0,1.0
51.32,6.0,1.0,1.0,1.0
51.36,7.4944,1.0,1.0,1.0
51.4,2.0,1.0,1.0,1.0
51.44,0.0,1.0,1.0,1.0
51.48,4.0,1.0,1.0,1.0
51.52,7.0,1.0,1.0,1.0
51.56,3.4944,1.0,1.0,1.0
51.6,13.0,1.0,1.0,1.0
51.64,2.0,1.0,1.0,1.0
51.68,12.5056,1.0,1.0,1.0
51.72,7.0,1.0,1.0,1.0
51.76,5.4944,1.0,1.0,1.0
51.8,7.0,1.0,1.0,1.0
51.84,10.0,1.0,1.0,1.0
51.88,3.0,1.0,1.0,1.0
51.92,6.0,1.0,1.0,1.0
51.96,7.0,1.0,1.0,1.0
52.0,9.0,1.0,1.0,1.0