Folder: Analysis/XRD:XRR/RIXS 214/M12 (part 2)

File: M12f_L2NOT_200_XRD_2-Theta_Omega.asc
*TYPE		=  Raw
*CLASS		=  ASCII CLASS
*SAMPLE		=
*COMMENT	=
*FNAME		=  M12f_L2NOT_200_XRD_2-Theta_Omega.asc
*DATE		=  11-Nov-22 00:22

*GROUP_COUNT	=  1
*GONIO		=  SmartLab(In-plane), 0.000000
*ATTACHMENT	=  Z-Phi Stage
*ASC		=  0, 0, 0.000000, 0.000000
*I_MONOCHRO	=  Ge(220)x2, 0.000000
*FILTER		=  None
*C_MONOCHRO	=  None, 0.000000
*SLIT_NAME	=  0, Incident slit
*SLIT_NAME	=  1, Receiving slit # 1
*SLIT_NAME	=  2, Receiving slit # 2
*COUNTER	=  D/teX Ultra 250, 0
*POS_FORMAT	=  0
*SCAN_AXIS	=  2Theta/Omega
*MEAS_MODE	=  Continuous Scanning
*TARGET		=  29
*XRAY_CHAR	=  K-ALPHA1
*WAVE_LENGTH1	=  1.54059
*WAVE_LENGTH2	=  1.54441
*THICKNESS	=  0, 0.000000
*MU		=  0, 0.000000
*SCAN_MODE	=  2Theta/Omega
*SPEED_DIM	=  sec./step
*XUNIT		=  deg.
*YUNIT		=  counts
*SCALE_MODE	=  1
*REP_COUNT	=  0
*SE_COUNT	=  0
*STD_MATERIAL	=  Unknown, Unknown, 0.000000, 0.000000, 0.000000, 0.000000, 0.000000, 0.000000
*LATT_CONS	=  0, Unknown, Unknown, 0.000000, 0.000000, 0.000000, 0.000000, 0.000000, 0.000000
*SEC_COUNT	=  1
*TSPEC_SIZE	=  0
*EXTRA_SIZE	=  0
*MEMO		=

*BEGIN
*GROUP		=  0
*START		=  42
*STOP		=  52
*STEP		=  0.01
*OFFSET		=  -0.031500
*SPEED		=  23.9588
*SLIT_SPEC	=  0, 0.400mm, 0.4, 0.000000
*SLIT_SPEC	=  1, 0.400mm, 0.4, 0.000000
*SLIT_SPEC	=  2, 0.400mm, 0.4, 0.000000
*KV		=  40
*MA		=  30
*LOW		=  0.000000
*HIGH		=  0.000000
*CTEMPER	=  0, 0.000000
*CTEMPER	=  1, 0.000000
*CTEMPER	=  2, 0.000000
*PAREX		=  0, 0.000000
*PAREX		=  1, 0.000000
*PAREX		=  2, 0.000000
*PAREX		=  3, 0.000000
*PAREX		=  4, 0.000000
*PAREX		=  5, 0.000000
*PAREX		=  6, 0.000000
*PAREX		=  7, 0.000000
*PAREX		=  8, 0.000000
*PAREX		=  9, 0.000000
*PAREX		=  10, 0.000000
*PAREX		=  11, 0.000000
*PAREX		=  12, 0.000000
*PAREX		=  13, 0.000000
*PAREX		=  14, 0.000000
*PAREX		=  15, 0.000000
*FULL_SCALE	=  1616406.5
*INDEX		=  0, 0, 0
*COUNT		=  1001
195.494, 232.494, 263.989, 249.011
245.506, 290.483, 338.528, 365.978
358, 425.989, 464.978, 502.494
567.528, 600.494, 628.967, 687.033
688.494, 815.944, 879, 906.483
1027.53, 1081.43, 1123.58, 1183.44
1265.02, 1321.96, 1424.51, 1528.97
1626.42, 1712.04, 1811.56, 1950.98
1993.92, 2103.56, 2265.92, 2344.51
2510.47, 2588.03, 2657.47, 2861.45
2918.02, 2979.45, 3221.56, 3291.49
3439.48, 3587.98, 3659.46, 3742.02
4009.43, 4117.12, 4305.82, 4368.09
4595.43, 4773.44, 4824.98, 4958.51
5220.9, 5291.55, 5499.55, 5591.48
5764.99, 5887.92, 5987.99, 6049.62
6100.34, 6229.11, 6439.83, 6601.52
6739.06, 6909.04, 7011.93, 7130.47
7001.44, 7326.64, 7302.8, 7428.02
7622.49, 7612.59, 7757.96, 7873.45
7783.92, 7952.57, 7929.04, 8104.47
8057.89, 8177.51, 8242.51, 8324.17
8256.38, 8135.56, 8235.32, 8317.64
8287.99, 8277.07, 8247.44, 8186.03
8166.42, 8137.66, 8015.79, 8112.62
7896.98, 8022.59, 7918.56, 7966.31
7756.12, 7725.98, 7677.12, 7397.86
7445.64, 7422.99, 7050.99, 7181.94
6988.54, 6878.47, 6714.59, 6735.94
6408.1, 6270, 6049.49, 6041.87
5854.09, 5869.11, 5594.37, 5503.23
5446.91, 5088.52, 4894.51, 4962.57
4753.94, 4552.06, 4329.44, 4296.56
4081, 4103.53, 3822.48, 3693.62
3518.07, 3318.96, 3226.43, 3153.59
2939.03, 2789.55, 2668.44, 2504.44
2472.62, 2299.46, 2117.58, 2056.53
1859.44, 1816.55, 1635.43, 1604.07
1498.55, 1402.98, 1359.51, 1239.51
1166.51, 1106.01, 1070.53, 898.506
847.517, 779.494, 704.528, 698.494
660.483, 689.022, 593.528, 585.494
482.461, 424.506, 473.044, 412.472
424.494, 414, 420.528, 387.483
345, 420, 369.506, 369.989
370.506, 392.989, 426.539, 423.45
496.044, 416.461, 506.989, 483.528
515.989, 550.472, 542.033, 581.506
590.989, 657.483, 688.022, 640.989
693.483, 712.022, 753.989, 807.944
776.539, 784.494, 784.011, 786.011
855.978, 875.989, 886.55, 817.439
899.056, 885.494, 895.989, 848.483
890.428, 951.583, 957.517, 943.494
968.461, 945.494, 917.011, 897.033
920.978, 957.011, 929.483, 864
847, 879.517, 866.989, 852.528
817.483, 778.461, 736.033, 750.506
745.011, 726.494, 713.517, 664.45
655.539, 663, 612.022, 590.506
613.978, 540.011, 571, 498.528
508.956, 468.044, 468.483, 442.483
466.517, 441.506, 425.011, 386.506
374.944, 358.528, 357.528, 324.011
280.483, 347.989, 331.989, 270.528
288.483, 302.506, 286.494, 285.022
280.483, 280, 291.989, 297.011
300.989, 298.506, 363.494, 300.033
331.506, 306.967, 385, 332.494
339.494, 374.517, 350.483, 351.978
388.517, 407.483, 437.528, 387.989
435.506, 451.011, 461.494, 495.989
528.506, 576.483, 554.978, 535.55
506.483, 560.45, 537.022, 573.506
625.472, 616, 623.55, 631.978
540.494, 664.506, 631.483, 659.044
628, 647.506, 638.439, 676.011
673.561, 729.428, 700.044, 623
727.483, 681.989, 661.044, 640.956
667.517, 635.011, 668, 637.472
637.494, 608.517, 652.022, 600
586.494, 632.011, 601.506, 603.978
572.472, 576.022, 552.011, 599.022
581.483, 581.506, 541.989, 533.022
544.978, 488.517, 503.033, 569.956
550, 515.011, 517.461, 527.528
585.45, 476.528, 506.011, 505.011
547.483, 469.528, 533.472, 489.989
521.517, 532.517, 561.483, 556.989
647.033, 578.956, 592.517, 603.989
638.978, 651.539, 647.517, 632.506
697.461, 702.483, 703.561, 708.417
814.033, 790.989, 814.517, 804.483
884.022, 852.978, 883.989, 912.011
960, 1004.01, 1001.48, 1063
1074.47, 1183.52, 1119.01, 1175.01
1140.98, 1216.48, 1238.45, 1273.04
1328.96, 1363.53, 1448.48, 1430.46
1481.03, 1524.51, 1621.01, 1568.47
1635.03, 1735.48, 1801.02, 1752
1868.37, 1955.49, 1951.52, 2147.03
2100.07, 2062.91, 2216.46, 2304.57
2418.96, 2478.49, 2450.97, 2638.57
2679.42, 2848.01, 2960.91, 3193.14
3178.93, 3360.89, 3504.59, 3873.43
4033.43, 4280.02, 4487.44, 4818.45
4977.43, 5465.45, 5923.06, 6416.46
7139.33, 7909.92, 8690.94, 9727.28
11151.4, 13089.1, 15343.3, 18830.5
24341.3, 32912.1, 47899.7, 74189
121256, 188279, 277871, 397055
567014, 814597, 1200390.9, 1868038.8
3490758, 9887479, 23887950, 29845924
22197048, 11860559, 2746345.8, 852721
408054, 211710, 118198, 70752.4
44963.5, 32397.7, 24729.2, 19486.3
16077.4, 13315.7, 11277, 9670.52
8369.74, 7442.11, 6538.08, 5773.59
5193.45, 4673.62, 4067.46, 3770.63
3342.53, 3129, 2824.07, 2571.56
2333.48, 2156.54, 2086.9, 1882.13
1765.51, 1571.48, 1487.01, 1459.55
1384.96, 1187.57, 1182.49, 1162.49
1065.52, 1005.48, 911.956, 849.078
830.45, 806.539, 721.483, 679.494
705.517, 706.494, 620.022, 618.989
552, 530.033, 485.506, 504.011
499.483, 397.494, 443.517, 468.506
386.967, 365.528, 394.494, 384
367, 352.011, 347.978, 312.506
326.022, 336.978, 327.528, 310.483
295.494, 298.539, 270.989, 258.978
258, 247.517, 215.011, 212.978
253.528, 252.967, 219, 210
176.022, 176.483, 156.517, 207.483
155.011, 182.989, 127.506, 144.506
154.989, 155.517, 120.011, 132.483
140.517, 137.483, 114, 106.506
113.989, 102.517, 73.4944, 88
83.5056, 90, 94.4944, 90.5056
63.9778, 66.5278, 63.9889, 91.5056
79.9889, 92.5167, 67.4944, 51.5056
58, 63.4944, 77.5056, 51
36, 58.9889, 59.5056, 68
68.5056, 38, 30.9889, 34.5056
43, 64, 41.4944, 46.5056
38, 29.9889, 43.0111, 33.9889
33.5167, 38.4944, 43.4944, 35.5056
39.5056, 32.4944, 34.5056, 35
49.4944, 44.5056, 40, 47.4944
18.5056, 28.9889, 38.5056, 31.5056
24, 35.4944, 32.5056, 30.9889
26, 29.0111, 32, 29.4944
29, 25.5056, 23.4944, 13.5056
30, 35.4944, 28.5056, 33.4944
16, 22.5056, 32.4944, 21.5056
17.4944, 22.5056, 7, 18.4944
21.5056, 16, 23.4944, 23.5056
13, 34.4944, 26.5056, 22
30, 20, 25, 12
10.9889, 21.0111, 25, 11
13, 15, 20, 11.4944
10.5056, 17, 14, 23.4944
13.4944, 21.0111, 20, 5
14, 9, 20, 13
10, 4, 5, 14
7, 16, 0.494446, 10.5056
11, 19, 11, 9
4.49445, 10.5056, 9, 2
6, 3, 12, 19
1.49445, 10.5056, 14, 7
13.4944, 12.5056, 5, 8
6, 14.4944, 19.4944, 1.50555
14.5056, 21.4944, 6, 15
5.50555, 4, 3.49445, 7.50555
13, 10, 4, 6
9.49445, 6.50555, 5, 13
9, 8, 10, 7
9, 8, 11, 12
17, 5, 13.9889, 5
1.01111, 10, 7.49445, 13.5056
17, 11, 13, 2
12, 2, 3, 26
5.49445, 8.50555, 6, 6.49445
12.5056, 5.49445, 3.50555, 8
8, 9, 15.4944, 5.50555
9.98889, 3.01111, 8, 7.49445
21, 9, 12, 6
8.49445, 11.0111, 5, 5
12, 13, 5, 8
5, 7, 9, 12
4, 5, 6, 4
5, 0.000000, 5.49445, 3.50555
2, 2, 8, 7
4, 5, 15, 12
4, 4, 6, 8
7, 4, 6, 2
11, 8.49445, 7.50555, 6
0.000000, 0.000000, 13, 8
5, 4.49445, 12.5056, 2
0.000000, 8, 5, 7
5, 13, 6, 6
14, 10, 2, 6
2, 5, 8, 5
2, 10, 7, 2
12.4944, 8.50555, 5, 0.000000
6, 4, 6, 8
8, 8, 9, 10
3, 6, 7, 2
4, 4.49445, 3, 8.50555
5, 7.49445, 7.50555, 6
5, 7, 6, 2
2.49445, 10, 8, 3.50555
8, 6, 3.49445, 7
10.5056, 4, 5, 4
8, 2, 9, 4
5, 9, 7, 7
2, 2, 7, 4
9, 7, 9, 13
7, 6, 7, 5
3, 7, 8, 0.000000
3, 13, 7, 10
0.000000, 9, 6, 4
2, 14, 14, 6
4, 9, 8, 7
12, 2, 3.49445, 2.50555
1, 0.000000, 7, 8
10, 7.49445, 18.5056, 15
6.49445, 7.50555, 6, 0.000000
2, 6, 4, 12
8, 10.4944, 10.4944, 5.01111
2, 13, 0.000000, 8
3, 6, 5, 5
6, 12, 8, 9
7.49445, 3.50555, 10, 0.000000
2, 12, 4, 2
0.000000, 1.49445, 31, 6.50555
4, 0.494446, 1.50555, 10
7, 4, 6, 9
3.49445, 5.50555, 7, 11
13, 9, 3, 15
2, 9, 10, 7.49445
12.5056, 0.000000, 8, 0.000000
7, 9, 0.000000, 3
5.49445, 7.50555, 22, 0.000000
7, 3, 0.000000, 3
10, 7, 0.494446, 6.50555
3, 10, 3, 2
6, 0.000000, 4, 9
7, 12, 2, 12
9
*END

*EOF